onset	duration	trial_type	response_time	experimentName	correct	stim_path
0.0	26	rest	n/a	DotsSocPhys	n/a	n/a
234.106	26	rest	n/a	DotsSocPhys	n/a	n/a
468.192	26	rest	n/a	DotsSocPhys	n/a	n/a
26.00999999999999	10	physics_incorrect	11.188	DotsSocPhys	1.0	stimuli/DOTS/physics.nobarriers.i.3.mp4
39.017	10	physics_correct	10.438	DotsSocPhys	1.0	stimuli/DOTS/physics.barriers.c.9.mp4
52.025000000000006	10	social_correct	11.142	DotsSocPhys	1.0	stimuli/DOTS/social.barriers.c.1.mp4
65.03	10	social_incorrect	10.778	DotsSocPhys	1.0	stimuli/DOTS/social.nobarriers.i.5.mp4
78.03799999999998	10	physics_incorrect	11.273	DotsSocPhys	1.0	stimuli/DOTS/physics.barriers.i.8.mp4
91.045	10	physics_incorrect	11.224	DotsSocPhys	1.0	stimuli/DOTS/physics.nobarriers.i.5.mp4
104.052	10	physics_correct	11.364	DotsSocPhys	1.0	stimuli/DOTS/physics.barriers.c.7.mp4
117.058	10	physics_correct	11.002	DotsSocPhys	1.0	stimuli/DOTS/physics.nobarriers.c.6.mp4
130.063	10	social_correct	10.93	DotsSocPhys	1.0	stimuli/DOTS/social.barriers.c.9.mp4
143.069	10	social_incorrect	10.782	DotsSocPhys	1.0	stimuli/DOTS/social.nobarriers.i.7.mp4
156.078	10	social_incorrect	11.095	DotsSocPhys	0.0	stimuli/DOTS/social.barriers.i.2.mp4
169.08399999999995	10	social_incorrect	11.337	DotsSocPhys	1.0	stimuli/DOTS/social.barriers.i.8.mp4
182.089	10	physics_correct	10.824	DotsSocPhys	1.0	stimuli/DOTS/physics.nobarriers.c.8.mp4
195.095	10	physics_incorrect	11.291	DotsSocPhys	1.0	stimuli/DOTS/physics.barriers.i.2.mp4
208.1	10	social_correct	10.943	DotsSocPhys	1.0	stimuli/DOTS/social.nobarriers.c.6.mp4
221.102	10	social_incorrect	11.002	DotsSocPhys	1.0	stimuli/DOTS/social.nobarriers.i.3.mp4
260.10799999999995	10	social_correct	11.015	DotsSocPhys	1.0	stimuli/DOTS/social.nobarriers.c.10.mp4
273.11400000000003	10	social_correct	11.002	DotsSocPhys	1.0	stimuli/DOTS/social.barriers.c.7.mp4
286.124	10	physics_incorrect	10.942	DotsSocPhys	1.0	stimuli/DOTS/physics.nobarriers.i.1.mp4
299.131	10	physics_incorrect	11.12	DotsSocPhys	0.0	stimuli/DOTS/physics.barriers.i.6.mp4
312.134	10	social_incorrect	10.972	DotsSocPhys	1.0	stimuli/DOTS/social.nobarriers.i.1.mp4
325.139	10	social_incorrect	11.191	DotsSocPhys	1.0	stimuli/DOTS/social.barriers.i.6.mp4
338.144	10	social_correct	10.994	DotsSocPhys	1.0	stimuli/DOTS/social.barriers.c.5.mp4
351.14700000000005	10	social_correct	10.993	DotsSocPhys	1.0	stimuli/DOTS/social.nobarriers.c.8.mp4
364.15	10	physics_incorrect	11.261	DotsSocPhys	1.0	stimuli/DOTS/physics.barriers.i.4.mp4
377.152	10	physics_correct	10.644	DotsSocPhys	1.0	stimuli/DOTS/physics.nobarriers.c.10.mp4
390.157	10	physics_correct	11.065	DotsSocPhys	1.0	stimuli/DOTS/physics.nobarriers.c.2.mp4
403.163	10	physics_correct	10.729	DotsSocPhys	1.0	stimuli/DOTS/physics.barriers.c.5.mp4
416.1650000000001	10	social_incorrect	10.849	DotsSocPhys	0.0	stimuli/DOTS/social.barriers.i.4.mp4
429.173	10	social_correct	10.789	DotsSocPhys	1.0	stimuli/DOTS/social.nobarriers.c.2.mp4
442.181	10	physics_incorrect	10.797	DotsSocPhys	0.0	stimuli/DOTS/physics.nobarriers.i.7.mp4
455.186	10	physics_correct	10.771	DotsSocPhys	1.0	stimuli/DOTS/physics.barriers.c.1.mp4
