onset	duration	trial_type	response_time	trial_type_specific	trial_type_morespecific	experiment_name	participant	correct	time_elapsed	trial_n	correct_answer	subject_correct	event	identical_tests	stim_ID	scenario_string	domain	task	prop_correct	stim_path
0.0020000000000024	10.0	fixation	n/a	fixation	fixation	VOE_Exp2	SAXE_NES2_s014	n/a	73698	n/a	n/a	n/a	n/a	n/a	n/a	n/a	n/a	n/a	0.75	n/a
10.018	7.5	psychology_fam	n/a	psychology_efficiency_fam	psychology_efficiency_efficiency-exp1_fam	VOE_Exp2	SAXE_NES2_s014	n/a	81214	1.0	n/a	n/a	fam	no	5.0	efficiency-exp1	psychology	efficiency	0.75	stimuli/VOE/psychology/efficiency_exp1/fam.mp4
17.783	7.5	psychology_unexp	n/a	psychology_efficiency_unexp	psychology_efficiency_efficiency-exp1_unexp	VOE_Exp2	SAXE_NES2_s014	n/a	88979	1.0	n/a	n/a	unexp	no	5.0	efficiency-exp1	psychology	efficiency	0.75	stimuli/VOE/psychology/efficiency_exp1/unexp.mp4
25.547	7.0	fixation	n/a	fixation	fixation	VOE_Exp2	SAXE_NES2_s014	n/a	96243	1.0	n/a	n/a	n/a	n/a	5.0	efficiency-exp1	n/a	n/a	0.75	n/a
32.55800000000001	2.0	check	1.862300000011921	check	check	VOE_Exp2	SAXE_NES2_s014	1.0	98254	1.0	True	True	unexp	no	5.0	efficiency-exp1	psychology	efficiency	0.75	stimuli/VOE/psychology/efficiency_exp1/surface.png
34.56700000000001	7.5	physics_fam	n/a	physics_permanence_fam	physics_permanence_toy_fam	VOE_Exp2	SAXE_NES2_s014	n/a	105763	2.0	n/a	n/a	fam	no	11.0	toy	physics	permanence	0.75	stimuli/VOE/physics/permanence_invisible_discontinuous_two-become-one-occluders/toy/fam.mp4
42.328	7.5	physics_exp	n/a	physics_permanence_exp	physics_permanence_toy_exp	VOE_Exp2	SAXE_NES2_s014	n/a	113524	2.0	n/a	n/a	exp	no	11.0	toy	physics	permanence	0.75	stimuli/VOE/physics/permanence_invisible_discontinuous_two-become-one-occluders/toy/exp.mp4
50.09100000000001	8.0	fixation	n/a	fixation	fixation	VOE_Exp2	SAXE_NES2_s014	n/a	121787	2.0	n/a	n/a	n/a	n/a	11.0	toy	n/a	n/a	0.75	n/a
58.098	2.0	check	n/a	check	check	VOE_Exp2	SAXE_NES2_s014	n/a	123794	2.0	True	n/a	exp	no	11.0	toy	physics	permanence	0.75	stimuli/VOE/physics/permanence_invisible_discontinuous_two-become-one-occluders/toy/occluder.png
60.107	7.5	physics_fam	n/a	physics_solidity_fam	physics_solidity_cube_fam	VOE_Exp2	SAXE_NES2_s014	n/a	131303	3.0	n/a	n/a	fam	no	7.0	cube	physics	solidity	0.75	stimuli/VOE/physics/solidity_block_barrier/cube/fam.mp4
67.87100000000001	7.5	physics_exp	n/a	physics_solidity_exp	physics_solidity_cube_exp	VOE_Exp2	SAXE_NES2_s014	n/a	139067	3.0	n/a	n/a	exp	no	7.0	cube	physics	solidity	0.75	stimuli/VOE/physics/solidity_block_barrier/cube/exp.mp4
75.62800000000001	8.0	fixation	n/a	fixation	fixation	VOE_Exp2	SAXE_NES2_s014	n/a	147324	3.0	n/a	n/a	n/a	n/a	7.0	cube	n/a	n/a	0.75	n/a
83.637	2.0	check	0.958300000011921	check	check	VOE_Exp2	SAXE_NES2_s014	1.0	149333	3.0	False	True	exp	no	7.0	cube	physics	solidity	0.75	stimuli/VOE/physics/permanence_create_one-becomes-two-fan/cone/object2.png
85.64699999999999	7.5	psychology_fam	n/a	psychology_goal_fam	psychology_goal_goal-exp1_fam	VOE_Exp2	SAXE_NES2_s014	n/a	156843	4.0	n/a	n/a	fam	no	2.0	goal-exp1	psychology	goal	0.75	stimuli/VOE/psychology/goal_exp1/fam.mp4
93.413	7.5	psychology_exp	n/a	psychology_goal_exp	psychology_goal_goal-exp1_exp	VOE_Exp2	SAXE_NES2_s014	n/a	164609	4.0	n/a	n/a	exp	no	2.0	goal-exp1	psychology	goal	0.75	stimuli/VOE/psychology/goal_exp1/exp.mp4
101.173	5.0	fixation	n/a	fixation	fixation	VOE_Exp2	SAXE_NES2_s014	n/a	169869	4.0	n/a	n/a	n/a	n/a	2.0	goal-exp1	n/a	n/a	0.75	n/a
106.181	2.0	check	n/a	check	check	VOE_Exp2	SAXE_NES2_s014	n/a	171877	4.0	True	n/a	exp	no	2.0	goal-exp1	psychology	goal	0.75	stimuli/VOE/psychology/goal_exp1/surface.png
108.19	7.5	physics_fam	n/a	physics_permanence_fam	physics_permanence_cone_fam	VOE_Exp2	SAXE_NES2_s014	n/a	179386	5.0	n/a	n/a	fam	yes_last4.5s	9.0	cone	physics	permanence	0.75	stimuli/VOE/physics/permanence_create_one-becomes-two-fan/cone/fam.mp4
115.958	7.5	physics_unexp	n/a	physics_permanence_unexp	physics_permanence_cone_unexp	VOE_Exp2	SAXE_NES2_s014	n/a	187154	5.0	n/a	n/a	unexp	yes_last4.5s	9.0	cone	physics	permanence	0.75	stimuli/VOE/physics/permanence_create_one-becomes-two-fan/cone/unexp.mp4
123.717	6.0	fixation	n/a	fixation	fixation	VOE_Exp2	SAXE_NES2_s014	n/a	193413	5.0	n/a	n/a	n/a	n/a	9.0	cone	n/a	n/a	0.75	n/a
129.726	2.0	check	0.7765	check	check	VOE_Exp2	SAXE_NES2_s014	1.0	195422	5.0	False	True	unexp	yes_last4.5s	9.0	cone	physics	permanence	0.75	stimuli/VOE/physics/solidity_long_overturn_fan/chair/object.png
131.732	7.5	psychology_fam	n/a	psychology_goal_fam	psychology_goal_trial-9_fam	VOE_Exp2	SAXE_NES2_s014	n/a	202928	6.0	n/a	n/a	fam	yes	0.0	trial-9	psychology	goal	0.75	stimuli/VOE/psychology/goal_1.1_noobstacles/trial_9/fam_unexp.mp4
139.504	7.5	psychology_unexp	n/a	psychology_goal_unexp	psychology_goal_trial-9_unexp	VOE_Exp2	SAXE_NES2_s014	n/a	210700	6.0	n/a	n/a	unexp	yes	0.0	trial-9	psychology	goal	0.75	stimuli/VOE/psychology/goal_1.1_noobstacles/trial_9/test.mp4
147.262	7.0	fixation	n/a	fixation	fixation	VOE_Exp2	SAXE_NES2_s014	n/a	217958	6.0	n/a	n/a	n/a	n/a	0.0	trial-9	n/a	n/a	0.75	n/a
154.267	2.0	check	1.3865999999940395	check	check	VOE_Exp2	SAXE_NES2_s014	1.0	219963	6.0	False	True	unexp	yes	0.0	trial-9	psychology	goal	0.75	stimuli/VOE/psychology/goal_exp1/agent.png
156.276	7.5	psychology_fam	n/a	psychology_efficiency_fam	psychology_efficiency_trial-2-barrier_fam	VOE_Exp2	SAXE_NES2_s014	n/a	227472	7.0	n/a	n/a	fam	no	20.0	trial-2-barrier	psychology	efficiency	0.75	stimuli/VOE/psychology/efficiency_2.1_noobstacleattest/trial_2_barrier/fam.mp4
164.036	7.5	psychology_unexp	n/a	psychology_efficiency_unexp	psychology_efficiency_trial-2-barrier_unexp	VOE_Exp2	SAXE_NES2_s014	n/a	235232	7.0	n/a	n/a	unexp	no	20.0	trial-2-barrier	psychology	efficiency	0.75	stimuli/VOE/psychology/efficiency_2.1_noobstacleattest/trial_2_barrier/unexp.mp4
171.793	7.0	fixation	n/a	fixation	fixation	VOE_Exp2	SAXE_NES2_s014	n/a	242489	7.0	n/a	n/a	n/a	n/a	20.0	trial-2-barrier	n/a	n/a	0.75	n/a
178.802	2.0	check	n/a	check	check	VOE_Exp2	SAXE_NES2_s014	n/a	244498	7.0	True	n/a	unexp	no	20.0	trial-2-barrier	psychology	efficiency	0.75	stimuli/VOE/psychology/efficiency_2.1_noobstacleattest/trial_2_barrier/surface.png
180.811	7.5	physics_fam	n/a	physics_permanence_fam	physics_permanence_cube_fam	VOE_Exp2	SAXE_NES2_s014	n/a	252007	8.0	n/a	n/a	fam	yes_last4.5s	10.0	cube	physics	permanence	0.75	stimuli/VOE/physics/permanence_create_one-becomes-two-fan/cube/fam.mp4
188.581	7.5	physics_exp	n/a	physics_permanence_exp	physics_permanence_cube_exp	VOE_Exp2	SAXE_NES2_s014	n/a	259777	8.0	n/a	n/a	exp	yes_last4.5s	10.0	cube	physics	permanence	0.75	stimuli/VOE/physics/permanence_create_one-becomes-two-fan/cube/exp.mp4
196.344	9.0	fixation	n/a	fixation	fixation	VOE_Exp2	SAXE_NES2_s014	n/a	269040	8.0	n/a	n/a	n/a	n/a	10.0	cube	n/a	n/a	0.75	n/a
205.35	2.0	check	1.330699999988079	check	check	VOE_Exp2	SAXE_NES2_s014	1.0	271046	8.0	False	True	exp	yes_last4.5s	10.0	cube	physics	permanence	0.75	stimuli/VOE/physics/solidity_block_barrier/cube/object.png
207.359	7.5	psychology_fam	n/a	psychology_goal_fam	psychology_goal_trial-16-pedestal_fam	VOE_Exp2	SAXE_NES2_s014	n/a	278555	9.0	n/a	n/a	fam	yes	17.0	trial-16-pedestal	psychology	goal	0.75	stimuli/VOE/psychology/goal_1.1_obstacles/trial_16_pedestal/fam_unexp.mp4
215.126	7.5	psychology_unexp	n/a	psychology_goal_unexp	psychology_goal_trial-16-pedestal_unexp	VOE_Exp2	SAXE_NES2_s014	n/a	286322	9.0	n/a	n/a	unexp	yes	17.0	trial-16-pedestal	psychology	goal	0.75	stimuli/VOE/psychology/goal_1.1_obstacles/trial_16_pedestal/test.mp4
222.891	6.0	fixation	n/a	fixation	fixation	VOE_Exp2	SAXE_NES2_s014	n/a	292587	9.0	n/a	n/a	n/a	n/a	17.0	trial-16-pedestal	n/a	n/a	0.75	n/a
228.89900000000003	2.0	check	1.103199999988079	check	check	VOE_Exp2	SAXE_NES2_s014	1.0	294595	9.0	True	True	unexp	yes	17.0	trial-16-pedestal	psychology	goal	0.75	stimuli/VOE/psychology/goal_1.1_obstacles/trial_16_pedestal/object.png
230.908	7.5	psychology_fam	n/a	psychology_efficiency_fam	psychology_efficiency_trial-14-pit_fam	VOE_Exp2	SAXE_NES2_s014	n/a	302104	10.0	n/a	n/a	fam	no	3.0	trial-14-pit	psychology	efficiency	0.75	stimuli/VOE/psychology/efficiency_2.1_noobstacleattest/trial_14_pit/fam.mp4
238.67300000000003	7.5	psychology_unexp	n/a	psychology_efficiency_unexp	psychology_efficiency_trial-14-pit_unexp	VOE_Exp2	SAXE_NES2_s014	n/a	309869	10.0	n/a	n/a	unexp	no	3.0	trial-14-pit	psychology	efficiency	0.75	stimuli/VOE/psychology/efficiency_2.1_noobstacleattest/trial_14_pit/unexp.mp4
246.437	7.0	fixation	n/a	fixation	fixation	VOE_Exp2	SAXE_NES2_s014	n/a	317133	10.0	n/a	n/a	n/a	n/a	3.0	trial-14-pit	n/a	n/a	0.75	n/a
253.443	2.0	check	0.7222999999821186	check	check	VOE_Exp2	SAXE_NES2_s014	1.0	319139	10.0	False	True	unexp	no	3.0	trial-14-pit	psychology	efficiency	0.75	stimuli/VOE/psychology/goal_exp1/surface.png
255.458	7.5	physics_fam	n/a	physics_solidity_fam	physics_solidity_chair_fam	VOE_Exp2	SAXE_NES2_s014	n/a	326654	11.0	n/a	n/a	fam	no	22.0	chair	physics	solidity	0.75	stimuli/VOE/physics/solidity_long_overturn_fan/chair/fam.mp4
263.223	7.5	physics_exp	n/a	physics_solidity_exp	physics_solidity_chair_exp	VOE_Exp2	SAXE_NES2_s014	n/a	334419	11.0	n/a	n/a	exp	no	22.0	chair	physics	solidity	0.75	stimuli/VOE/physics/solidity_long_overturn_fan/chair/exp.mp4
270.982	4.0	fixation	n/a	fixation	fixation	VOE_Exp2	SAXE_NES2_s014	n/a	338678	11.0	n/a	n/a	n/a	n/a	22.0	chair	n/a	n/a	0.75	n/a
274.99	2.0	check	0.8795	check	check	VOE_Exp2	SAXE_NES2_s014	1.0	340686	11.0	False	True	exp	no	22.0	chair	physics	solidity	0.75	stimuli/VOE/physics/permanence_create_one-becomes-two-fan/cone/object1.png
277.0	7.5	both_fam	n/a	both_agent-solidity_fam	both_agent-solidity_trial-11_fam	VOE_Exp2	SAXE_NES2_s014	n/a	348196	12.0	n/a	n/a	fam	no	30.0	trial-11	both	agent-solidity	0.75	stimuli/VOE/physics-psychology/efficiency_2.5_agent-solidity/trial_11/fam.mp4
284.76700000000005	7.5	both_exp	n/a	both_agent-solidity_exp	both_agent-solidity_trial-11_exp	VOE_Exp2	SAXE_NES2_s014	n/a	355963	12.0	n/a	n/a	exp	no	30.0	trial-11	both	agent-solidity	0.75	stimuli/VOE/physics-psychology/efficiency_2.5_agent-solidity/trial_11/exp.mp4
292.53200000000004	10.0	fixation	n/a	fixation	fixation	VOE_Exp2	SAXE_NES2_s014	n/a	366228	12.0	n/a	n/a	n/a	n/a	30.0	trial-11	n/a	n/a	0.75	n/a
302.538	2.0	check	1.3827999999821186	check	check	VOE_Exp2	SAXE_NES2_s014	1.0	368234	12.0	True	True	exp	no	30.0	trial-11	both	agent-solidity	0.75	stimuli/VOE/physics-psychology/efficiency_2.5_agent-solidity/trial_11/object.png
304.547	7.5	physics_fam	n/a	physics_solidity_fam	physics_solidity_solidity-exp1_fam	VOE_Exp2	SAXE_NES2_s014	n/a	375743	13.0	n/a	n/a	fam	no	24.0	solidity-exp1	physics	solidity	0.75	stimuli/VOE/physics/solidity_exp1/fam.mp4
312.312	7.5	physics_exp	n/a	physics_solidity_exp	physics_solidity_solidity-exp1_exp	VOE_Exp2	SAXE_NES2_s014	n/a	383508	13.0	n/a	n/a	exp	no	24.0	solidity-exp1	physics	solidity	0.75	stimuli/VOE/physics/solidity_exp1/exp.mp4
320.072	8.0	fixation	n/a	fixation	fixation	VOE_Exp2	SAXE_NES2_s014	n/a	391768	13.0	n/a	n/a	n/a	n/a	24.0	solidity-exp1	n/a	n/a	0.75	n/a
328.081	2.0	check	0.8310999999940395	check	check	VOE_Exp2	SAXE_NES2_s014	1.0	393777	13.0	False	True	exp	no	24.0	solidity-exp1	physics	solidity	0.75	stimuli/VOE/physics/solidity_long_overturn_fan/chair/object.png
330.09000000000003	7.5	both_fam	n/a	both_infer-constraint_fam	both_infer-constraint_trial-34-around_fam	VOE_Exp2	SAXE_NES2_s014	n/a	401286	14.0	n/a	n/a	fam	no	13.0	trial-34-around	both	infer-constraint	0.75	stimuli/VOE/physics-psychology/infer_constraint_3.1/trial_34_around/fam.mp4
337.86300000000006	7.5	both_exp	n/a	both_infer-constraint_exp	both_infer-constraint_trial-34-around_exp	VOE_Exp2	SAXE_NES2_s014	n/a	409059	14.0	n/a	n/a	exp	no	13.0	trial-34-around	both	infer-constraint	0.75	stimuli/VOE/physics-psychology/infer_constraint_3.1/trial_34_around/exp.mp4
345.624	5.0	fixation	n/a	fixation	fixation	VOE_Exp2	SAXE_NES2_s014	n/a	414320	14.0	n/a	n/a	n/a	n/a	13.0	trial-34-around	n/a	n/a	0.75	n/a
350.63199999999995	2.0	check	1.4592000000178813	check	check	VOE_Exp2	SAXE_NES2_s014	1.0	416328	14.0	False	True	exp	no	13.0	trial-34-around	both	infer-constraint	0.75	stimuli/VOE/physics-psychology/infer_constraint_3.1/trial_5_over/object.png
352.64200000000005	7.5	both_fam	n/a	both_agent-solidity_fam	both_agent-solidity_trial-19_fam	VOE_Exp2	SAXE_NES2_s014	n/a	423838	15.0	n/a	n/a	fam	no	15.0	trial-19	both	agent-solidity	0.75	stimuli/VOE/physics-psychology/efficiency_2.5_agent-solidity/trial_19/fam.mp4
360.408	7.5	both_exp	n/a	both_agent-solidity_exp	both_agent-solidity_trial-19_exp	VOE_Exp2	SAXE_NES2_s014	n/a	431604	15.0	n/a	n/a	exp	no	15.0	trial-19	both	agent-solidity	0.75	stimuli/VOE/physics-psychology/efficiency_2.5_agent-solidity/trial_19/exp.mp4
368.1710000000001	6.0	fixation	n/a	fixation	fixation	VOE_Exp2	SAXE_NES2_s014	n/a	437867	15.0	n/a	n/a	n/a	n/a	15.0	trial-19	n/a	n/a	0.75	n/a
374.176	2.0	check	0.9717000000178814	check	check	VOE_Exp2	SAXE_NES2_s014	0.0	439872	15.0	True	False	exp	no	15.0	trial-19	both	agent-solidity	0.75	stimuli/VOE/physics-psychology/efficiency_2.5_agent-solidity/trial_19/object.png
376.184	7.5	both_fam	n/a	both_infer-constraint_fam	both_infer-constraint_trial-5-over_fam	VOE_Exp2	SAXE_NES2_s014	n/a	447380	16.0	n/a	n/a	fam	no	12.0	trial-5-over	both	infer-constraint	0.75	stimuli/VOE/physics-psychology/infer_constraint_3.1/trial_5_over/fam.mp4
383.955	7.5	both_unexp	n/a	both_infer-constraint_unexp	both_infer-constraint_trial-5-over_unexp	VOE_Exp2	SAXE_NES2_s014	n/a	455151	16.0	n/a	n/a	unexp	no	12.0	trial-5-over	both	infer-constraint	0.75	stimuli/VOE/physics-psychology/infer_constraint_3.1/trial_5_over/unexp.mp4
391.717	9.0	fixation	n/a	fixation	fixation	VOE_Exp2	SAXE_NES2_s014	n/a	464413	16.0	n/a	n/a	n/a	n/a	12.0	trial-5-over	n/a	n/a	0.75	n/a
400.721	2.0	check	1.2874000000059604	check	check	VOE_Exp2	SAXE_NES2_s014	1.0	466417	16.0	True	True	unexp	no	12.0	trial-5-over	both	infer-constraint	0.75	stimuli/VOE/physics-psychology/infer_constraint_3.1/trial_5_over/agent.png
402.728	10.0	fixation	n/a	fixation	fixation	VOE_Exp2	SAXE_NES2_s014	n/a	476424	n/a	n/a	n/a	n/a	n/a	n/a	n/a	n/a	n/a	0.75	n/a
