onset	duration	trial_type	response_time	trial_type_specific	trial_type_morespecific	experiment_name	participant	correct	time_elapsed	trial_n	correct_answer	subject_correct	event	identical_tests	stim_ID	scenario_string	domain	task	prop_correct	stim_path
0.0039999999999906	10.0	fixation	n/a	fixation	fixation	VOE_Exp2	SAXE_NES2_s010	n/a	77041	n/a	n/a	n/a	n/a	n/a	n/a	n/a	n/a	n/a	0.875	n/a
10.015	7.5	psychology_fam	n/a	psychology_efficiency_fam	psychology_efficiency_efficiency-exp1_fam	VOE_Exp2	SAXE_NES2_s010	n/a	84552	1.0	n/a	n/a	fam	no	21.0	efficiency-exp1	psychology	efficiency	0.875	stimuli/VOE/psychology/efficiency_exp1/fam.mp4
17.77499999999999	7.5	psychology_exp	n/a	psychology_efficiency_exp	psychology_efficiency_efficiency-exp1_exp	VOE_Exp2	SAXE_NES2_s010	n/a	92312	1.0	n/a	n/a	exp	no	21.0	efficiency-exp1	psychology	efficiency	0.875	stimuli/VOE/psychology/efficiency_exp1/exp.mp4
25.532	7.0	fixation	n/a	fixation	fixation	VOE_Exp2	SAXE_NES2_s010	n/a	99569	1.0	n/a	n/a	n/a	n/a	21.0	efficiency-exp1	n/a	n/a	0.875	n/a
32.541	2.0	check	1.2008999999910592	check	check	VOE_Exp2	SAXE_NES2_s010	0.0	101578	1.0	False	False	exp	no	21.0	efficiency-exp1	psychology	efficiency	0.875	stimuli/VOE/psychology/goal_1.1_noobstacles/trial_9/agent.png
34.54799999999999	7.5	physics_fam	n/a	physics_permanence_fam	physics_permanence_cone_fam	VOE_Exp2	SAXE_NES2_s010	n/a	109085	2.0	n/a	n/a	fam	yes_last4.5s	25.0	cone	physics	permanence	0.875	stimuli/VOE/physics/permanence_create_one-becomes-two-fan/cone/fam.mp4
42.315	7.5	physics_exp	n/a	physics_permanence_exp	physics_permanence_cone_exp	VOE_Exp2	SAXE_NES2_s010	n/a	116852	2.0	n/a	n/a	exp	yes_last4.5s	25.0	cone	physics	permanence	0.875	stimuli/VOE/physics/permanence_create_one-becomes-two-fan/cone/exp.mp4
50.07899999999999	9.0	fixation	n/a	fixation	fixation	VOE_Exp2	SAXE_NES2_s010	n/a	126116	2.0	n/a	n/a	n/a	n/a	25.0	cone	n/a	n/a	0.875	n/a
59.086	2.0	check	0.9747000000029802	check	check	VOE_Exp2	SAXE_NES2_s010	1.0	128123	2.0	False	True	exp	yes_last4.5s	25.0	cone	physics	permanence	0.875	stimuli/VOE/physics/solidity_block_barrier/cube/barrier.png
61.095	7.5	physics_fam	n/a	physics_solidity_fam	physics_solidity_cube_fam	VOE_Exp2	SAXE_NES2_s010	n/a	135632	3.0	n/a	n/a	fam	no	7.0	cube	physics	solidity	0.875	stimuli/VOE/physics/solidity_block_barrier/cube/fam.mp4
68.856	7.5	physics_exp	n/a	physics_solidity_exp	physics_solidity_cube_exp	VOE_Exp2	SAXE_NES2_s010	n/a	143393	3.0	n/a	n/a	exp	no	7.0	cube	physics	solidity	0.875	stimuli/VOE/physics/solidity_block_barrier/cube/exp.mp4
76.61499999999998	4.0	fixation	n/a	fixation	fixation	VOE_Exp2	SAXE_NES2_s010	n/a	147652	3.0	n/a	n/a	n/a	n/a	7.0	cube	n/a	n/a	0.875	n/a
80.62099999999998	2.0	check	1.98859999999404	check	check	VOE_Exp2	SAXE_NES2_s010	1.0	149658	3.0	True	True	exp	no	7.0	cube	physics	solidity	0.875	stimuli/VOE/physics/solidity_block_barrier/cube/barrier.png
82.62699999999998	7.5	psychology_fam	n/a	psychology_goal_fam	psychology_goal_trial-9_fam	VOE_Exp2	SAXE_NES2_s010	n/a	157164	4.0	n/a	n/a	fam	yes	16.0	trial-9	psychology	goal	0.875	stimuli/VOE/psychology/goal_1.1_noobstacles/trial_9/fam_exp.mp4
90.39499999999998	7.5	psychology_exp	n/a	psychology_goal_exp	psychology_goal_trial-9_exp	VOE_Exp2	SAXE_NES2_s010	n/a	164932	4.0	n/a	n/a	exp	yes	16.0	trial-9	psychology	goal	0.875	stimuli/VOE/psychology/goal_1.1_noobstacles/trial_9/test.mp4
98.155	7.0	fixation	n/a	fixation	fixation	VOE_Exp2	SAXE_NES2_s010	n/a	172192	4.0	n/a	n/a	n/a	n/a	16.0	trial-9	n/a	n/a	0.875	n/a
105.159	2.0	check	1.7788999999910593	check	check	VOE_Exp2	SAXE_NES2_s010	1.0	174196	4.0	True	True	exp	yes	16.0	trial-9	psychology	goal	0.875	stimuli/VOE/psychology/goal_1.1_noobstacles/trial_9/object.png
107.16899999999998	7.5	physics_fam	n/a	physics_permanence_fam	physics_permanence_cube_fam	VOE_Exp2	SAXE_NES2_s010	n/a	181706	5.0	n/a	n/a	fam	yes_last4.5s	26.0	cube	physics	permanence	0.875	stimuli/VOE/physics/permanence_create_one-becomes-two-fan/cube/fam.mp4
114.93	7.5	physics_unexp	n/a	physics_permanence_unexp	physics_permanence_cube_unexp	VOE_Exp2	SAXE_NES2_s010	n/a	189467	5.0	n/a	n/a	unexp	yes_last4.5s	26.0	cube	physics	permanence	0.875	stimuli/VOE/physics/permanence_create_one-becomes-two-fan/cube/unexp.mp4
122.694	9.0	fixation	n/a	fixation	fixation	VOE_Exp2	SAXE_NES2_s010	n/a	198731	5.0	n/a	n/a	n/a	n/a	26.0	cube	n/a	n/a	0.875	n/a
131.701	2.0	check	1.202	check	check	VOE_Exp2	SAXE_NES2_s010	1.0	200738	5.0	True	True	unexp	yes_last4.5s	26.0	cube	physics	permanence	0.875	stimuli/VOE/physics/permanence_create_one-becomes-two-fan/cube/object1.png
133.71	7.5	psychology_fam	n/a	psychology_goal_fam	psychology_goal_trial-16-pedestal_fam	VOE_Exp2	SAXE_NES2_s010	n/a	208247	6.0	n/a	n/a	fam	yes	17.0	trial-16-pedestal	psychology	goal	0.875	stimuli/VOE/psychology/goal_1.1_obstacles/trial_16_pedestal/fam_unexp.mp4
141.474	7.5	psychology_unexp	n/a	psychology_goal_unexp	psychology_goal_trial-16-pedestal_unexp	VOE_Exp2	SAXE_NES2_s010	n/a	216011	6.0	n/a	n/a	unexp	yes	17.0	trial-16-pedestal	psychology	goal	0.875	stimuli/VOE/psychology/goal_1.1_obstacles/trial_16_pedestal/test.mp4
149.237	10.0	fixation	n/a	fixation	fixation	VOE_Exp2	SAXE_NES2_s010	n/a	226274	6.0	n/a	n/a	n/a	n/a	17.0	trial-16-pedestal	n/a	n/a	0.875	n/a
159.244	2.0	check	1.1727999999970198	check	check	VOE_Exp2	SAXE_NES2_s010	1.0	228281	6.0	False	True	unexp	yes	17.0	trial-16-pedestal	psychology	goal	0.875	stimuli/VOE/psychology/efficiency_2.1_noobstacleattest/trial_14_pit/agent.png
161.251	7.5	psychology_fam	n/a	psychology_efficiency_fam	psychology_efficiency_trial-2-barrier_fam	VOE_Exp2	SAXE_NES2_s010	n/a	235788	7.0	n/a	n/a	fam	no	4.0	trial-2-barrier	psychology	efficiency	0.875	stimuli/VOE/psychology/efficiency_2.1_noobstacleattest/trial_2_barrier/fam.mp4
169.015	7.5	psychology_exp	n/a	psychology_efficiency_exp	psychology_efficiency_trial-2-barrier_exp	VOE_Exp2	SAXE_NES2_s010	n/a	243552	7.0	n/a	n/a	exp	no	4.0	trial-2-barrier	psychology	efficiency	0.875	stimuli/VOE/psychology/efficiency_2.1_noobstacleattest/trial_2_barrier/exp.mp4
176.781	5.0	fixation	n/a	fixation	fixation	VOE_Exp2	SAXE_NES2_s010	n/a	248818	7.0	n/a	n/a	n/a	n/a	4.0	trial-2-barrier	n/a	n/a	0.875	n/a
181.79	2.0	check	0.722	check	check	VOE_Exp2	SAXE_NES2_s010	1.0	250827	7.0	False	True	exp	no	4.0	trial-2-barrier	psychology	efficiency	0.875	stimuli/VOE/psychology/efficiency_exp1/surface.png
183.799	7.5	physics_fam	n/a	physics_permanence_fam	physics_permanence_toy_fam	VOE_Exp2	SAXE_NES2_s010	n/a	258336	8.0	n/a	n/a	fam	no	11.0	toy	physics	permanence	0.875	stimuli/VOE/physics/permanence_invisible_discontinuous_two-become-one-occluders/toy/fam.mp4
191.559	7.5	physics_exp	n/a	physics_permanence_exp	physics_permanence_toy_exp	VOE_Exp2	SAXE_NES2_s010	n/a	266096	8.0	n/a	n/a	exp	no	11.0	toy	physics	permanence	0.875	stimuli/VOE/physics/permanence_invisible_discontinuous_two-become-one-occluders/toy/exp.mp4
199.322	7.0	fixation	n/a	fixation	fixation	VOE_Exp2	SAXE_NES2_s010	n/a	273359	8.0	n/a	n/a	n/a	n/a	11.0	toy	n/a	n/a	0.875	n/a
206.329	2.0	check	1.8367000000029805	check	check	VOE_Exp2	SAXE_NES2_s010	0.0	275366	8.0	True	False	exp	no	11.0	toy	physics	permanence	0.875	stimuli/VOE/physics/permanence_invisible_discontinuous_two-become-one-occluders/toy/occluder.png
208.338	7.5	psychology_fam	n/a	psychology_goal_fam	psychology_goal_goal-exp1_fam	VOE_Exp2	SAXE_NES2_s010	n/a	282875	9.0	n/a	n/a	fam	no	2.0	goal-exp1	psychology	goal	0.875	stimuli/VOE/psychology/goal_exp1/fam.mp4
216.103	7.5	psychology_exp	n/a	psychology_goal_exp	psychology_goal_goal-exp1_exp	VOE_Exp2	SAXE_NES2_s010	n/a	290640	9.0	n/a	n/a	exp	no	2.0	goal-exp1	psychology	goal	0.875	stimuli/VOE/psychology/goal_exp1/exp.mp4
223.866	8.0	fixation	n/a	fixation	fixation	VOE_Exp2	SAXE_NES2_s010	n/a	298903	9.0	n/a	n/a	n/a	n/a	2.0	goal-exp1	n/a	n/a	0.875	n/a
231.875	2.0	check	1.118	check	check	VOE_Exp2	SAXE_NES2_s010	1.0	300912	9.0	True	True	exp	no	2.0	goal-exp1	psychology	goal	0.875	stimuli/VOE/psychology/goal_exp1/surface.png
233.88	7.5	psychology_fam	n/a	psychology_efficiency_fam	psychology_efficiency_trial-14-pit_fam	VOE_Exp2	SAXE_NES2_s010	n/a	308417	10.0	n/a	n/a	fam	no	19.0	trial-14-pit	psychology	efficiency	0.875	stimuli/VOE/psychology/efficiency_2.1_noobstacleattest/trial_14_pit/fam.mp4
241.646	7.5	psychology_exp	n/a	psychology_efficiency_exp	psychology_efficiency_trial-14-pit_exp	VOE_Exp2	SAXE_NES2_s010	n/a	316183	10.0	n/a	n/a	exp	no	19.0	trial-14-pit	psychology	efficiency	0.875	stimuli/VOE/psychology/efficiency_2.1_noobstacleattest/trial_14_pit/exp.mp4
249.409	6.0	fixation	n/a	fixation	fixation	VOE_Exp2	SAXE_NES2_s010	n/a	322446	10.0	n/a	n/a	n/a	n/a	19.0	trial-14-pit	n/a	n/a	0.875	n/a
255.418	2.0	check	0.6094000000059605	check	check	VOE_Exp2	SAXE_NES2_s010	1.0	324455	10.0	True	True	exp	no	19.0	trial-14-pit	psychology	efficiency	0.875	stimuli/VOE/psychology/efficiency_2.1_noobstacleattest/trial_14_pit/agent.png
257.43499999999995	7.5	physics_fam	n/a	physics_solidity_fam	physics_solidity_solidity-exp1_fam	VOE_Exp2	SAXE_NES2_s010	n/a	331972	11.0	n/a	n/a	fam	no	24.0	solidity-exp1	physics	solidity	0.875	stimuli/VOE/physics/solidity_exp1/fam.mp4
265.20000000000005	7.5	physics_exp	n/a	physics_solidity_exp	physics_solidity_solidity-exp1_exp	VOE_Exp2	SAXE_NES2_s010	n/a	339737	11.0	n/a	n/a	exp	no	24.0	solidity-exp1	physics	solidity	0.875	stimuli/VOE/physics/solidity_exp1/exp.mp4
272.963	8.0	fixation	n/a	fixation	fixation	VOE_Exp2	SAXE_NES2_s010	n/a	348000	11.0	n/a	n/a	n/a	n/a	24.0	solidity-exp1	n/a	n/a	0.875	n/a
280.97	2.0	check	0.9702999999970198	check	check	VOE_Exp2	SAXE_NES2_s010	1.0	350007	11.0	False	True	exp	no	24.0	solidity-exp1	physics	solidity	0.875	stimuli/VOE/physics/permanence_create_one-becomes-two-fan/cube/object2.png
282.97799999999995	7.5	both_fam	n/a	both_agent-solidity_fam	both_agent-solidity_trial-11_fam	VOE_Exp2	SAXE_NES2_s010	n/a	357515	12.0	n/a	n/a	fam	no	30.0	trial-11	both	agent-solidity	0.875	stimuli/VOE/physics-psychology/efficiency_2.5_agent-solidity/trial_11/fam.mp4
290.74	7.5	both_exp	n/a	both_agent-solidity_exp	both_agent-solidity_trial-11_exp	VOE_Exp2	SAXE_NES2_s010	n/a	365277	12.0	n/a	n/a	exp	no	30.0	trial-11	both	agent-solidity	0.875	stimuli/VOE/physics-psychology/efficiency_2.5_agent-solidity/trial_11/exp.mp4
298.50199999999995	6.0	fixation	n/a	fixation	fixation	VOE_Exp2	SAXE_NES2_s010	n/a	371539	12.0	n/a	n/a	n/a	n/a	30.0	trial-11	n/a	n/a	0.875	n/a
304.50699999999995	2.0	check	1.2837999999970198	check	check	VOE_Exp2	SAXE_NES2_s010	1.0	373544	12.0	False	True	exp	no	30.0	trial-11	both	agent-solidity	0.875	stimuli/VOE/physics-psychology/efficiency_2.5_agent-solidity/trial_19/agent.png
306.515	7.5	physics_fam	n/a	physics_solidity_fam	physics_solidity_chair_fam	VOE_Exp2	SAXE_NES2_s010	n/a	381052	13.0	n/a	n/a	fam	no	22.0	chair	physics	solidity	0.875	stimuli/VOE/physics/solidity_long_overturn_fan/chair/fam.mp4
314.28	7.5	physics_exp	n/a	physics_solidity_exp	physics_solidity_chair_exp	VOE_Exp2	SAXE_NES2_s010	n/a	388817	13.0	n/a	n/a	exp	no	22.0	chair	physics	solidity	0.875	stimuli/VOE/physics/solidity_long_overturn_fan/chair/exp.mp4
322.04	6.0	fixation	n/a	fixation	fixation	VOE_Exp2	SAXE_NES2_s010	n/a	395077	13.0	n/a	n/a	n/a	n/a	22.0	chair	n/a	n/a	0.875	n/a
328.049	2.0	check	1.2975	check	check	VOE_Exp2	SAXE_NES2_s010	1.0	397086	13.0	False	True	exp	no	22.0	chair	physics	solidity	0.875	stimuli/VOE/physics/permanence_create_one-becomes-two-fan/cone/object2.png
330.054	7.5	both_fam	n/a	both_infer-constraint_fam	both_infer-constraint_trial-5-over_fam	VOE_Exp2	SAXE_NES2_s010	n/a	404591	14.0	n/a	n/a	fam	no	28.0	trial-5-over	both	infer-constraint	0.875	stimuli/VOE/physics-psychology/infer_constraint_3.1/trial_5_over/fam.mp4
337.81600000000003	7.5	both_exp	n/a	both_infer-constraint_exp	both_infer-constraint_trial-5-over_exp	VOE_Exp2	SAXE_NES2_s010	n/a	412353	14.0	n/a	n/a	exp	no	28.0	trial-5-over	both	infer-constraint	0.875	stimuli/VOE/physics-psychology/infer_constraint_3.1/trial_5_over/exp.mp4
345.57899999999995	7.0	fixation	n/a	fixation	fixation	VOE_Exp2	SAXE_NES2_s010	n/a	419616	14.0	n/a	n/a	n/a	n/a	28.0	trial-5-over	n/a	n/a	0.875	n/a
352.586	2.0	check	1.0565999999940396	check	check	VOE_Exp2	SAXE_NES2_s010	1.0	421623	14.0	True	True	exp	no	28.0	trial-5-over	both	infer-constraint	0.875	stimuli/VOE/physics-psychology/infer_constraint_3.1/trial_5_over/object.png
354.59000000000003	7.5	both_fam	n/a	both_agent-solidity_fam	both_agent-solidity_trial-19_fam	VOE_Exp2	SAXE_NES2_s010	n/a	429127	15.0	n/a	n/a	fam	no	15.0	trial-19	both	agent-solidity	0.875	stimuli/VOE/physics-psychology/efficiency_2.5_agent-solidity/trial_19/fam.mp4
362.351	7.5	both_exp	n/a	both_agent-solidity_exp	both_agent-solidity_trial-19_exp	VOE_Exp2	SAXE_NES2_s010	n/a	436888	15.0	n/a	n/a	exp	no	15.0	trial-19	both	agent-solidity	0.875	stimuli/VOE/physics-psychology/efficiency_2.5_agent-solidity/trial_19/exp.mp4
370.11	5.0	fixation	n/a	fixation	fixation	VOE_Exp2	SAXE_NES2_s010	n/a	442147	15.0	n/a	n/a	n/a	n/a	15.0	trial-19	n/a	n/a	0.875	n/a
375.119	2.0	check	1.1292000000029805	check	check	VOE_Exp2	SAXE_NES2_s010	1.0	444156	15.0	False	True	exp	no	15.0	trial-19	both	agent-solidity	0.875	stimuli/VOE/physics-psychology/infer_constraint_3.1/trial_34_around/surface.png
377.131	7.5	both_fam	n/a	both_infer-constraint_fam	both_infer-constraint_trial-34-around_fam	VOE_Exp2	SAXE_NES2_s010	n/a	451668	16.0	n/a	n/a	fam	no	29.0	trial-34-around	both	infer-constraint	0.875	stimuli/VOE/physics-psychology/infer_constraint_3.1/trial_34_around/fam.mp4
384.89	7.5	both_unexp	n/a	both_infer-constraint_unexp	both_infer-constraint_trial-34-around_unexp	VOE_Exp2	SAXE_NES2_s010	n/a	459427	16.0	n/a	n/a	unexp	no	29.0	trial-34-around	both	infer-constraint	0.875	stimuli/VOE/physics-psychology/infer_constraint_3.1/trial_34_around/unexp.mp4
392.659	8.0	fixation	n/a	fixation	fixation	VOE_Exp2	SAXE_NES2_s010	n/a	467696	16.0	n/a	n/a	n/a	n/a	29.0	trial-34-around	n/a	n/a	0.875	n/a
400.666	2.0	check	0.9942999999970198	check	check	VOE_Exp2	SAXE_NES2_s010	1.0	469703	16.0	False	True	unexp	no	29.0	trial-34-around	both	infer-constraint	0.875	stimuli/VOE/physics-psychology/efficiency_2.5_agent-solidity/trial_11/object.png
402.67	10.0	fixation	n/a	fixation	fixation	VOE_Exp2	SAXE_NES2_s010	n/a	479707	n/a	n/a	n/a	n/a	n/a	n/a	n/a	n/a	n/a	0.875	n/a
