onset	duration	trial_type	response_time	trial_type_specific	trial_type_morespecific	experiment_name	participant	correct	time_elapsed	trial_n	correct_answer	subject_correct	event	identical_tests	stim_ID	scenario_string	domain	task	prop_correct	stim_path
0.0020000000000024	10.0	fixation	n/a	fixation	fixation	VOE_Exp2	SAXE_NES2_s004	n/a	45098	n/a	n/a	n/a	n/a	n/a	n/a	n/a	n/a	n/a	0.6875	n/a
10.015	7.5	both_fam	n/a	both_agent-solidity_fam	both_agent-solidity_trial-19_fam	VOE_Exp2	SAXE_NES2_s004	n/a	52611	1.0	n/a	n/a	fam	no	31.0	trial-19	both	agent-solidity	0.6875	stimuli/VOE/physics-psychology/efficiency_2.5_agent-solidity/trial_19/fam.mp4
17.776000000000003	7.5	both_unexp	n/a	both_agent-solidity_unexp	both_agent-solidity_trial-19_unexp	VOE_Exp2	SAXE_NES2_s004	n/a	60372	1.0	n/a	n/a	unexp	no	31.0	trial-19	both	agent-solidity	0.6875	stimuli/VOE/physics-psychology/efficiency_2.5_agent-solidity/trial_19/unexp.mp4
25.53700000000001	7.0	fixation	n/a	fixation	fixation	VOE_Exp2	SAXE_NES2_s004	n/a	67633	1.0	n/a	n/a	n/a	n/a	31.0	trial-19	n/a	n/a	0.6875	n/a
32.54800000000001	2.0	check	n/a	check	check	VOE_Exp2	SAXE_NES2_s004	n/a	69644	1.0	False	n/a	unexp	no	31.0	trial-19	both	agent-solidity	0.6875	stimuli/VOE/physics-psychology/infer_constraint_3.1/trial_34_around/surface.png
34.558	7.5	physics_fam	n/a	physics_solidity_fam	physics_solidity_solidity-exp1_fam	VOE_Exp2	SAXE_NES2_s004	n/a	77154	2.0	n/a	n/a	fam	no	8.0	solidity-exp1	physics	solidity	0.6875	stimuli/VOE/physics/solidity_exp1/fam.mp4
42.318000000000005	7.5	physics_unexp	n/a	physics_solidity_unexp	physics_solidity_solidity-exp1_unexp	VOE_Exp2	SAXE_NES2_s004	n/a	84914	2.0	n/a	n/a	unexp	no	8.0	solidity-exp1	physics	solidity	0.6875	stimuli/VOE/physics/solidity_exp1/unexp.mp4
50.08100000000001	7.0	fixation	n/a	fixation	fixation	VOE_Exp2	SAXE_NES2_s004	n/a	92177	2.0	n/a	n/a	n/a	n/a	8.0	solidity-exp1	n/a	n/a	0.6875	n/a
57.088	2.0	check	1.2927000000029802	check	check	VOE_Exp2	SAXE_NES2_s004	1.0	94184	2.0	True	True	unexp	no	8.0	solidity-exp1	physics	solidity	0.6875	stimuli/VOE/physics/solidity_exp1/object.png
59.097	7.5	both_fam	n/a	both_infer-constraint_fam	both_infer-constraint_trial-5-over_fam	VOE_Exp2	SAXE_NES2_s004	n/a	101693	3.0	n/a	n/a	fam	no	28.0	trial-5-over	both	infer-constraint	0.6875	stimuli/VOE/physics-psychology/infer_constraint_3.1/trial_5_over/fam.mp4
66.862	7.5	both_exp	n/a	both_infer-constraint_exp	both_infer-constraint_trial-5-over_exp	VOE_Exp2	SAXE_NES2_s004	n/a	109458	3.0	n/a	n/a	exp	no	28.0	trial-5-over	both	infer-constraint	0.6875	stimuli/VOE/physics-psychology/infer_constraint_3.1/trial_5_over/exp.mp4
74.62299999999999	8.0	fixation	n/a	fixation	fixation	VOE_Exp2	SAXE_NES2_s004	n/a	117719	3.0	n/a	n/a	n/a	n/a	28.0	trial-5-over	n/a	n/a	0.6875	n/a
82.631	2.0	check	0.8263000000044703	check	check	VOE_Exp2	SAXE_NES2_s004	1.0	119727	3.0	True	True	exp	no	28.0	trial-5-over	both	infer-constraint	0.6875	stimuli/VOE/physics-psychology/infer_constraint_3.1/trial_5_over/agent.png
84.64000000000001	7.5	physics_fam	n/a	physics_solidity_fam	physics_solidity_chair_fam	VOE_Exp2	SAXE_NES2_s004	n/a	127236	4.0	n/a	n/a	fam	no	6.0	chair	physics	solidity	0.6875	stimuli/VOE/physics/solidity_long_overturn_fan/chair/fam.mp4
92.401	7.5	physics_unexp	n/a	physics_solidity_unexp	physics_solidity_chair_unexp	VOE_Exp2	SAXE_NES2_s004	n/a	134997	4.0	n/a	n/a	unexp	no	6.0	chair	physics	solidity	0.6875	stimuli/VOE/physics/solidity_long_overturn_fan/chair/unexp.mp4
100.155	8.0	fixation	n/a	fixation	fixation	VOE_Exp2	SAXE_NES2_s004	n/a	143251	4.0	n/a	n/a	n/a	n/a	6.0	chair	n/a	n/a	0.6875	n/a
108.161	2.0	check	1.17539999999851	check	check	VOE_Exp2	SAXE_NES2_s004	1.0	145257	4.0	True	True	unexp	no	6.0	chair	physics	solidity	0.6875	stimuli/VOE/physics/solidity_long_overturn_fan/chair/object.png
110.16899999999998	7.5	both_fam	n/a	both_infer-constraint_fam	both_infer-constraint_trial-34-around_fam	VOE_Exp2	SAXE_NES2_s004	n/a	152765	5.0	n/a	n/a	fam	no	13.0	trial-34-around	both	infer-constraint	0.6875	stimuli/VOE/physics-psychology/infer_constraint_3.1/trial_34_around/fam.mp4
117.927	7.5	both_exp	n/a	both_infer-constraint_exp	both_infer-constraint_trial-34-around_exp	VOE_Exp2	SAXE_NES2_s004	n/a	160523	5.0	n/a	n/a	exp	no	13.0	trial-34-around	both	infer-constraint	0.6875	stimuli/VOE/physics-psychology/infer_constraint_3.1/trial_34_around/exp.mp4
125.68699999999998	5.0	fixation	n/a	fixation	fixation	VOE_Exp2	SAXE_NES2_s004	n/a	165783	5.0	n/a	n/a	n/a	n/a	13.0	trial-34-around	n/a	n/a	0.6875	n/a
130.69299999999998	2.0	check	0.7357999999970197	check	check	VOE_Exp2	SAXE_NES2_s004	1.0	167789	5.0	True	True	exp	no	13.0	trial-34-around	both	infer-constraint	0.6875	stimuli/VOE/physics-psychology/infer_constraint_3.1/trial_34_around/agent.png
132.703	7.5	psychology_fam	n/a	psychology_goal_fam	psychology_goal_goal-exp1_fam	VOE_Exp2	SAXE_NES2_s004	n/a	175299	6.0	n/a	n/a	fam	no	18.0	goal-exp1	psychology	goal	0.6875	stimuli/VOE/psychology/goal_exp1/fam.mp4
140.466	7.5	psychology_unexp	n/a	psychology_goal_unexp	psychology_goal_goal-exp1_unexp	VOE_Exp2	SAXE_NES2_s004	n/a	183062	6.0	n/a	n/a	unexp	no	18.0	goal-exp1	psychology	goal	0.6875	stimuli/VOE/psychology/goal_exp1/unexp.mp4
148.22899999999998	7.0	fixation	n/a	fixation	fixation	VOE_Exp2	SAXE_NES2_s004	n/a	190325	6.0	n/a	n/a	n/a	n/a	18.0	goal-exp1	n/a	n/a	0.6875	n/a
155.236	2.0	check	1.2723999999985098	check	check	VOE_Exp2	SAXE_NES2_s004	1.0	192332	6.0	True	True	unexp	no	18.0	goal-exp1	psychology	goal	0.6875	stimuli/VOE/psychology/goal_exp1/surface.png
157.244	7.5	both_fam	n/a	both_agent-solidity_fam	both_agent-solidity_trial-11_fam	VOE_Exp2	SAXE_NES2_s004	n/a	199840	7.0	n/a	n/a	fam	no	14.0	trial-11	both	agent-solidity	0.6875	stimuli/VOE/physics-psychology/efficiency_2.5_agent-solidity/trial_11/fam.mp4
165.006	7.5	both_unexp	n/a	both_agent-solidity_unexp	both_agent-solidity_trial-11_unexp	VOE_Exp2	SAXE_NES2_s004	n/a	207602	7.0	n/a	n/a	unexp	no	14.0	trial-11	both	agent-solidity	0.6875	stimuli/VOE/physics-psychology/efficiency_2.5_agent-solidity/trial_11/unexp.mp4
172.766	4.0	fixation	n/a	fixation	fixation	VOE_Exp2	SAXE_NES2_s004	n/a	211862	7.0	n/a	n/a	n/a	n/a	14.0	trial-11	n/a	n/a	0.6875	n/a
176.774	2.0	check	1.0628999999985098	check	check	VOE_Exp2	SAXE_NES2_s004	0.0	213870	7.0	False	False	unexp	no	14.0	trial-11	both	agent-solidity	0.6875	stimuli/VOE/physics-psychology/infer_constraint_3.1/trial_5_over/agent.png
178.78199999999998	7.5	psychology_fam	n/a	psychology_efficiency_fam	psychology_efficiency_trial-14-pit_fam	VOE_Exp2	SAXE_NES2_s004	n/a	221378	8.0	n/a	n/a	fam	no	3.0	trial-14-pit	psychology	efficiency	0.6875	stimuli/VOE/psychology/efficiency_2.1_noobstacleattest/trial_14_pit/fam.mp4
186.551	7.5	psychology_unexp	n/a	psychology_efficiency_unexp	psychology_efficiency_trial-14-pit_unexp	VOE_Exp2	SAXE_NES2_s004	n/a	229147	8.0	n/a	n/a	unexp	no	3.0	trial-14-pit	psychology	efficiency	0.6875	stimuli/VOE/psychology/efficiency_2.1_noobstacleattest/trial_14_pit/unexp.mp4
194.305	5.0	fixation	n/a	fixation	fixation	VOE_Exp2	SAXE_NES2_s004	n/a	234401	8.0	n/a	n/a	n/a	n/a	3.0	trial-14-pit	n/a	n/a	0.6875	n/a
199.314	2.0	check	1.246	check	check	VOE_Exp2	SAXE_NES2_s004	0.0	236410	8.0	False	False	unexp	no	3.0	trial-14-pit	psychology	efficiency	0.6875	stimuli/VOE/psychology/goal_exp1/surface.png
201.323	7.5	psychology_fam	n/a	psychology_efficiency_fam	psychology_efficiency_efficiency-exp1_fam	VOE_Exp2	SAXE_NES2_s004	n/a	243919	9.0	n/a	n/a	fam	no	5.0	efficiency-exp1	psychology	efficiency	0.6875	stimuli/VOE/psychology/efficiency_exp1/fam.mp4
209.079	7.5	psychology_unexp	n/a	psychology_efficiency_unexp	psychology_efficiency_efficiency-exp1_unexp	VOE_Exp2	SAXE_NES2_s004	n/a	251675	9.0	n/a	n/a	unexp	no	5.0	efficiency-exp1	psychology	efficiency	0.6875	stimuli/VOE/psychology/efficiency_exp1/unexp.mp4
216.841	10.0	fixation	n/a	fixation	fixation	VOE_Exp2	SAXE_NES2_s004	n/a	261937	9.0	n/a	n/a	n/a	n/a	5.0	efficiency-exp1	n/a	n/a	0.6875	n/a
226.845	2.0	check	0.928	check	check	VOE_Exp2	SAXE_NES2_s004	0.0	263941	9.0	False	False	unexp	no	5.0	efficiency-exp1	psychology	efficiency	0.6875	stimuli/VOE/psychology/goal_1.1_noobstacles/trial_9/agent.png
228.852	7.5	physics_fam	n/a	physics_permanence_fam	physics_permanence_cube_fam	VOE_Exp2	SAXE_NES2_s004	n/a	271448	10.0	n/a	n/a	fam	yes_last4.5s	10.0	cube	physics	permanence	0.6875	stimuli/VOE/physics/permanence_create_one-becomes-two-fan/cube/fam.mp4
236.609	7.5	physics_exp	n/a	physics_permanence_exp	physics_permanence_cube_exp	VOE_Exp2	SAXE_NES2_s004	n/a	279205	10.0	n/a	n/a	exp	yes_last4.5s	10.0	cube	physics	permanence	0.6875	stimuli/VOE/physics/permanence_create_one-becomes-two-fan/cube/exp.mp4
244.373	6.0	fixation	n/a	fixation	fixation	VOE_Exp2	SAXE_NES2_s004	n/a	285469	10.0	n/a	n/a	n/a	n/a	10.0	cube	n/a	n/a	0.6875	n/a
250.381	2.0	check	0.90589999999851	check	check	VOE_Exp2	SAXE_NES2_s004	1.0	287477	10.0	False	True	exp	yes_last4.5s	10.0	cube	physics	permanence	0.6875	stimuli/VOE/physics/solidity_exp1/occluder.png
252.396	7.5	physics_fam	n/a	physics_permanence_fam	physics_permanence_toy_fam	VOE_Exp2	SAXE_NES2_s004	n/a	294992	11.0	n/a	n/a	fam	no	11.0	toy	physics	permanence	0.6875	stimuli/VOE/physics/permanence_invisible_discontinuous_two-become-one-occluders/toy/fam.mp4
260.161	7.5	physics_exp	n/a	physics_permanence_exp	physics_permanence_toy_exp	VOE_Exp2	SAXE_NES2_s004	n/a	302757	11.0	n/a	n/a	exp	no	11.0	toy	physics	permanence	0.6875	stimuli/VOE/physics/permanence_invisible_discontinuous_two-become-one-occluders/toy/exp.mp4
267.92	6.0	fixation	n/a	fixation	fixation	VOE_Exp2	SAXE_NES2_s004	n/a	309016	11.0	n/a	n/a	n/a	n/a	11.0	toy	n/a	n/a	0.6875	n/a
273.929	2.0	check	0.9332999999970196	check	check	VOE_Exp2	SAXE_NES2_s004	1.0	311025	11.0	False	True	exp	no	11.0	toy	physics	permanence	0.6875	stimuli/VOE/physics/solidity_long_overturn_fan/chair/occluder.png
275.934	7.5	physics_fam	n/a	physics_solidity_fam	physics_solidity_cube_fam	VOE_Exp2	SAXE_NES2_s004	n/a	318530	12.0	n/a	n/a	fam	no	7.0	cube	physics	solidity	0.6875	stimuli/VOE/physics/solidity_block_barrier/cube/fam.mp4
283.699	7.5	physics_exp	n/a	physics_solidity_exp	physics_solidity_cube_exp	VOE_Exp2	SAXE_NES2_s004	n/a	326295	12.0	n/a	n/a	exp	no	7.0	cube	physics	solidity	0.6875	stimuli/VOE/physics/solidity_block_barrier/cube/exp.mp4
291.462	9.0	fixation	n/a	fixation	fixation	VOE_Exp2	SAXE_NES2_s004	n/a	335558	12.0	n/a	n/a	n/a	n/a	7.0	cube	n/a	n/a	0.6875	n/a
300.469	2.0	check	0.9677999999970198	check	check	VOE_Exp2	SAXE_NES2_s004	1.0	337565	12.0	False	True	exp	no	7.0	cube	physics	solidity	0.6875	stimuli/VOE/physics/permanence_invisible_discontinuous_two-become-one-occluders/toy/occluder.png
302.475	7.5	psychology_fam	n/a	psychology_goal_fam	psychology_goal_trial-9_fam	VOE_Exp2	SAXE_NES2_s004	n/a	345071	13.0	n/a	n/a	fam	yes	0.0	trial-9	psychology	goal	0.6875	stimuli/VOE/psychology/goal_1.1_noobstacles/trial_9/fam_unexp.mp4
310.238	7.5	psychology_unexp	n/a	psychology_goal_unexp	psychology_goal_trial-9_unexp	VOE_Exp2	SAXE_NES2_s004	n/a	352834	13.0	n/a	n/a	unexp	yes	0.0	trial-9	psychology	goal	0.6875	stimuli/VOE/psychology/goal_1.1_noobstacles/trial_9/test.mp4
317.997	9.0	fixation	n/a	fixation	fixation	VOE_Exp2	SAXE_NES2_s004	n/a	362093	13.0	n/a	n/a	n/a	n/a	0.0	trial-9	n/a	n/a	0.6875	n/a
327.004	2.0	check	1.0355	check	check	VOE_Exp2	SAXE_NES2_s004	1.0	364100	13.0	False	True	unexp	yes	0.0	trial-9	psychology	goal	0.6875	stimuli/VOE/psychology/goal_1.1_obstacles/trial_16_pedestal/surface.png
329.011	7.5	psychology_fam	n/a	psychology_efficiency_fam	psychology_efficiency_trial-2-barrier_fam	VOE_Exp2	SAXE_NES2_s004	n/a	371607	14.0	n/a	n/a	fam	no	20.0	trial-2-barrier	psychology	efficiency	0.6875	stimuli/VOE/psychology/efficiency_2.1_noobstacleattest/trial_2_barrier/fam.mp4
336.775	7.5	psychology_unexp	n/a	psychology_efficiency_unexp	psychology_efficiency_trial-2-barrier_unexp	VOE_Exp2	SAXE_NES2_s004	n/a	379371	14.0	n/a	n/a	unexp	no	20.0	trial-2-barrier	psychology	efficiency	0.6875	stimuli/VOE/psychology/efficiency_2.1_noobstacleattest/trial_2_barrier/unexp.mp4
344.542	7.0	fixation	n/a	fixation	fixation	VOE_Exp2	SAXE_NES2_s004	n/a	386638	14.0	n/a	n/a	n/a	n/a	20.0	trial-2-barrier	n/a	n/a	0.6875	n/a
351.551	2.0	check	0.7630999999940395	check	check	VOE_Exp2	SAXE_NES2_s004	1.0	388647	14.0	True	True	unexp	no	20.0	trial-2-barrier	psychology	efficiency	0.6875	stimuli/VOE/psychology/efficiency_2.1_noobstacleattest/trial_2_barrier/agent.png
353.556	7.5	psychology_fam	n/a	psychology_goal_fam	psychology_goal_trial-16-pedestal_fam	VOE_Exp2	SAXE_NES2_s004	n/a	396152	15.0	n/a	n/a	fam	yes	17.0	trial-16-pedestal	psychology	goal	0.6875	stimuli/VOE/psychology/goal_1.1_obstacles/trial_16_pedestal/fam_unexp.mp4
361.329	7.5	psychology_unexp	n/a	psychology_goal_unexp	psychology_goal_trial-16-pedestal_unexp	VOE_Exp2	SAXE_NES2_s004	n/a	403925	15.0	n/a	n/a	unexp	yes	17.0	trial-16-pedestal	psychology	goal	0.6875	stimuli/VOE/psychology/goal_1.1_obstacles/trial_16_pedestal/test.mp4
369.089	8.0	fixation	n/a	fixation	fixation	VOE_Exp2	SAXE_NES2_s004	n/a	412185	15.0	n/a	n/a	n/a	n/a	17.0	trial-16-pedestal	n/a	n/a	0.6875	n/a
377.096	2.0	check	n/a	check	check	VOE_Exp2	SAXE_NES2_s004	n/a	414192	15.0	True	n/a	unexp	yes	17.0	trial-16-pedestal	psychology	goal	0.6875	stimuli/VOE/psychology/goal_1.1_obstacles/trial_16_pedestal/surface.png
379.102	7.5	physics_fam	n/a	physics_permanence_fam	physics_permanence_cone_fam	VOE_Exp2	SAXE_NES2_s004	n/a	421698	16.0	n/a	n/a	fam	yes_last4.5s	9.0	cone	physics	permanence	0.6875	stimuli/VOE/physics/permanence_create_one-becomes-two-fan/cone/fam.mp4
386.866	7.5	physics_unexp	n/a	physics_permanence_unexp	physics_permanence_cone_unexp	VOE_Exp2	SAXE_NES2_s004	n/a	429462	16.0	n/a	n/a	unexp	yes_last4.5s	9.0	cone	physics	permanence	0.6875	stimuli/VOE/physics/permanence_create_one-becomes-two-fan/cone/unexp.mp4
394.627	6.0	fixation	n/a	fixation	fixation	VOE_Exp2	SAXE_NES2_s004	n/a	435723	16.0	n/a	n/a	n/a	n/a	9.0	cone	n/a	n/a	0.6875	n/a
400.632	2.0	check	0.7958000000044704	check	check	VOE_Exp2	SAXE_NES2_s004	1.0	437728	16.0	False	True	unexp	yes_last4.5s	9.0	cone	physics	permanence	0.6875	stimuli/VOE/physics/permanence_invisible_discontinuous_two-become-one-occluders/toy/object.png
402.639	10.0	fixation	n/a	fixation	fixation	VOE_Exp2	SAXE_NES2_s004	n/a	447735	n/a	n/a	n/a	n/a	n/a	n/a	n/a	n/a	n/a	0.6875	n/a
