onset	duration	trial_type	response_time	trial_type_specific	trial_type_morespecific	experiment_name	participant	correct	time_elapsed	trial_n	correct_answer	subject_correct	event	identical_tests	stim_ID	scenario_string	domain	task	prop_correct	stim_path
0.0020000000000024	10.0	fixation	n/a	fixation	fixation	VOE_Exp2	SAXE_NES2_s020	n/a	51439	n/a	n/a	n/a	n/a	n/a	n/a	n/a	n/a	n/a	0.9375	n/a
10.018	7.5	both_fam	n/a	both_agent-solidity_fam	both_agent-solidity_trial-11_fam	VOE_Exp2	SAXE_NES2_s020	n/a	58955	1.0	n/a	n/a	fam	no	14.0	trial-11	both	agent-solidity	0.9375	stimuli/VOE/physics-psychology/efficiency_2.5_agent-solidity/trial_11/fam.mp4
17.784	7.5	both_unexp	n/a	both_agent-solidity_unexp	both_agent-solidity_trial-11_unexp	VOE_Exp2	SAXE_NES2_s020	n/a	66721	1.0	n/a	n/a	unexp	no	14.0	trial-11	both	agent-solidity	0.9375	stimuli/VOE/physics-psychology/efficiency_2.5_agent-solidity/trial_11/unexp.mp4
25.55	2.0	check	0.6541000000238418	check	check	VOE_Exp2	SAXE_NES2_s020	1.0	68987	1.0	False	True	unexp	no	14.0	trial-11	both	agent-solidity	0.9375	stimuli/VOE/physics-psychology/efficiency_2.5_agent-solidity/trial_19/agent.png
27.559	7.0	fixation	n/a	fixation	fixation	VOE_Exp2	SAXE_NES2_s020	n/a	75996	1.0	n/a	n/a	n/a	n/a	14.0	trial-11	n/a	n/a	0.9375	n/a
34.571	7.5	physics_fam	n/a	physics_solidity_fam	physics_solidity_chair_fam	VOE_Exp2	SAXE_NES2_s020	n/a	83508	2.0	n/a	n/a	fam	no	6.0	chair	physics	solidity	0.9375	stimuli/VOE/physics/solidity_long_overturn_fan/chair/fam.mp4
42.34700000000001	7.5	physics_unexp	n/a	physics_solidity_unexp	physics_solidity_chair_unexp	VOE_Exp2	SAXE_NES2_s020	n/a	91284	2.0	n/a	n/a	unexp	no	6.0	chair	physics	solidity	0.9375	stimuli/VOE/physics/solidity_long_overturn_fan/chair/unexp.mp4
50.111	2.0	check	0.579300000011921	check	check	VOE_Exp2	SAXE_NES2_s020	1.0	93548	2.0	False	True	unexp	no	6.0	chair	physics	solidity	0.9375	stimuli/VOE/physics/permanence_create_one-becomes-two-fan/cube/object2.png
52.11500000000001	4.0	fixation	n/a	fixation	fixation	VOE_Exp2	SAXE_NES2_s020	n/a	97552	2.0	n/a	n/a	n/a	n/a	6.0	chair	n/a	n/a	0.9375	n/a
56.128	7.5	both_fam	n/a	both_infer-constraint_fam	both_infer-constraint_trial-34-around_fam	VOE_Exp2	SAXE_NES2_s020	n/a	105065	3.0	n/a	n/a	fam	no	29.0	trial-34-around	both	infer-constraint	0.9375	stimuli/VOE/physics-psychology/infer_constraint_3.1/trial_34_around/fam.mp4
63.900000000000006	7.5	both_unexp	n/a	both_infer-constraint_unexp	both_infer-constraint_trial-34-around_unexp	VOE_Exp2	SAXE_NES2_s020	n/a	112837	3.0	n/a	n/a	unexp	no	29.0	trial-34-around	both	infer-constraint	0.9375	stimuli/VOE/physics-psychology/infer_constraint_3.1/trial_34_around/unexp.mp4
71.671	2.0	check	0.7094000000059605	check	check	VOE_Exp2	SAXE_NES2_s020	1.0	115108	3.0	True	True	unexp	no	29.0	trial-34-around	both	infer-constraint	0.9375	stimuli/VOE/physics-psychology/infer_constraint_3.1/trial_34_around/agent.png
73.679	8.0	fixation	n/a	fixation	fixation	VOE_Exp2	SAXE_NES2_s020	n/a	123116	3.0	n/a	n/a	n/a	n/a	29.0	trial-34-around	n/a	n/a	0.9375	n/a
81.69200000000001	7.5	physics_fam	n/a	physics_solidity_fam	physics_solidity_solidity-exp1_fam	VOE_Exp2	SAXE_NES2_s020	n/a	130629	4.0	n/a	n/a	fam	no	24.0	solidity-exp1	physics	solidity	0.9375	stimuli/VOE/physics/solidity_exp1/fam.mp4
89.468	7.5	physics_exp	n/a	physics_solidity_exp	physics_solidity_solidity-exp1_exp	VOE_Exp2	SAXE_NES2_s020	n/a	138405	4.0	n/a	n/a	exp	no	24.0	solidity-exp1	physics	solidity	0.9375	stimuli/VOE/physics/solidity_exp1/exp.mp4
97.237	2.0	check	1.195699999988079	check	check	VOE_Exp2	SAXE_NES2_s020	1.0	140674	4.0	True	True	exp	no	24.0	solidity-exp1	physics	solidity	0.9375	stimuli/VOE/physics/solidity_exp1/object.png
99.242	10.0	fixation	n/a	fixation	fixation	VOE_Exp2	SAXE_NES2_s020	n/a	150679	4.0	n/a	n/a	n/a	n/a	24.0	solidity-exp1	n/a	n/a	0.9375	n/a
109.258	7.5	both_fam	n/a	both_infer-constraint_fam	both_infer-constraint_trial-5-over_fam	VOE_Exp2	SAXE_NES2_s020	n/a	158195	5.0	n/a	n/a	fam	no	28.0	trial-5-over	both	infer-constraint	0.9375	stimuli/VOE/physics-psychology/infer_constraint_3.1/trial_5_over/fam.mp4
117.025	7.5	both_exp	n/a	both_infer-constraint_exp	both_infer-constraint_trial-5-over_exp	VOE_Exp2	SAXE_NES2_s020	n/a	165962	5.0	n/a	n/a	exp	no	28.0	trial-5-over	both	infer-constraint	0.9375	stimuli/VOE/physics-psychology/infer_constraint_3.1/trial_5_over/exp.mp4
124.789	2.0	check	1.4685	check	check	VOE_Exp2	SAXE_NES2_s020	1.0	168226	5.0	False	True	exp	no	28.0	trial-5-over	both	infer-constraint	0.9375	stimuli/VOE/physics-psychology/efficiency_2.5_agent-solidity/trial_19/agent.png
126.799	7.0	fixation	n/a	fixation	fixation	VOE_Exp2	SAXE_NES2_s020	n/a	175236	5.0	n/a	n/a	n/a	n/a	28.0	trial-5-over	n/a	n/a	0.9375	n/a
133.81099999999998	7.5	psychology_fam	n/a	psychology_goal_fam	psychology_goal_trial-16-pedestal_fam	VOE_Exp2	SAXE_NES2_s020	n/a	182748	6.0	n/a	n/a	fam	yes	17.0	trial-16-pedestal	psychology	goal	0.9375	stimuli/VOE/psychology/goal_1.1_obstacles/trial_16_pedestal/fam_unexp.mp4
141.577	7.5	psychology_unexp	n/a	psychology_goal_unexp	psychology_goal_trial-16-pedestal_unexp	VOE_Exp2	SAXE_NES2_s020	n/a	190514	6.0	n/a	n/a	unexp	yes	17.0	trial-16-pedestal	psychology	goal	0.9375	stimuli/VOE/psychology/goal_1.1_obstacles/trial_16_pedestal/test.mp4
149.348	2.0	check	0.9283000000119208	check	check	VOE_Exp2	SAXE_NES2_s020	1.0	192785	6.0	True	True	unexp	yes	17.0	trial-16-pedestal	psychology	goal	0.9375	stimuli/VOE/psychology/goal_1.1_obstacles/trial_16_pedestal/object.png
151.356	8.0	fixation	n/a	fixation	fixation	VOE_Exp2	SAXE_NES2_s020	n/a	200793	6.0	n/a	n/a	n/a	n/a	17.0	trial-16-pedestal	n/a	n/a	0.9375	n/a
159.36900000000003	7.5	both_fam	n/a	both_agent-solidity_fam	both_agent-solidity_trial-19_fam	VOE_Exp2	SAXE_NES2_s020	n/a	208306	7.0	n/a	n/a	fam	no	31.0	trial-19	both	agent-solidity	0.9375	stimuli/VOE/physics-psychology/efficiency_2.5_agent-solidity/trial_19/fam.mp4
167.128	7.5	both_unexp	n/a	both_agent-solidity_unexp	both_agent-solidity_trial-19_unexp	VOE_Exp2	SAXE_NES2_s020	n/a	216065	7.0	n/a	n/a	unexp	no	31.0	trial-19	both	agent-solidity	0.9375	stimuli/VOE/physics-psychology/efficiency_2.5_agent-solidity/trial_19/unexp.mp4
174.89100000000002	2.0	check	0.7691000000238418	check	check	VOE_Exp2	SAXE_NES2_s020	1.0	218328	7.0	False	True	unexp	no	31.0	trial-19	both	agent-solidity	0.9375	stimuli/VOE/physics-psychology/infer_constraint_3.1/trial_5_over/object.png
176.90300000000002	6.0	fixation	n/a	fixation	fixation	VOE_Exp2	SAXE_NES2_s020	n/a	224340	7.0	n/a	n/a	n/a	n/a	31.0	trial-19	n/a	n/a	0.9375	n/a
182.914	7.5	psychology_fam	n/a	psychology_efficiency_fam	psychology_efficiency_efficiency-exp1_fam	VOE_Exp2	SAXE_NES2_s020	n/a	231851	8.0	n/a	n/a	fam	no	5.0	efficiency-exp1	psychology	efficiency	0.9375	stimuli/VOE/psychology/efficiency_exp1/fam.mp4
190.68400000000003	7.5	psychology_unexp	n/a	psychology_efficiency_unexp	psychology_efficiency_efficiency-exp1_unexp	VOE_Exp2	SAXE_NES2_s020	n/a	239621	8.0	n/a	n/a	unexp	no	5.0	efficiency-exp1	psychology	efficiency	0.9375	stimuli/VOE/psychology/efficiency_exp1/unexp.mp4
198.455	2.0	check	1.0720999999940397	check	check	VOE_Exp2	SAXE_NES2_s020	1.0	241892	8.0	False	True	unexp	no	5.0	efficiency-exp1	psychology	efficiency	0.9375	stimuli/VOE/psychology/goal_1.1_obstacles/trial_16_pedestal/object.png
200.464	5.0	fixation	n/a	fixation	fixation	VOE_Exp2	SAXE_NES2_s020	n/a	246901	8.0	n/a	n/a	n/a	n/a	5.0	efficiency-exp1	n/a	n/a	0.9375	n/a
205.473	7.5	psychology_fam	n/a	psychology_efficiency_fam	psychology_efficiency_trial-2-barrier_fam	VOE_Exp2	SAXE_NES2_s020	n/a	254410	9.0	n/a	n/a	fam	no	4.0	trial-2-barrier	psychology	efficiency	0.9375	stimuli/VOE/psychology/efficiency_2.1_noobstacleattest/trial_2_barrier/fam.mp4
213.24400000000003	7.5	psychology_exp	n/a	psychology_efficiency_exp	psychology_efficiency_trial-2-barrier_exp	VOE_Exp2	SAXE_NES2_s020	n/a	262181	9.0	n/a	n/a	exp	no	4.0	trial-2-barrier	psychology	efficiency	0.9375	stimuli/VOE/psychology/efficiency_2.1_noobstacleattest/trial_2_barrier/exp.mp4
221.016	2.0	check	0.779800000011921	check	check	VOE_Exp2	SAXE_NES2_s020	1.0	264453	9.0	True	True	exp	no	4.0	trial-2-barrier	psychology	efficiency	0.9375	stimuli/VOE/psychology/efficiency_2.1_noobstacleattest/trial_2_barrier/agent.png
223.029	5.0	fixation	n/a	fixation	fixation	VOE_Exp2	SAXE_NES2_s020	n/a	269466	9.0	n/a	n/a	n/a	n/a	4.0	trial-2-barrier	n/a	n/a	0.9375	n/a
228.044	7.5	physics_fam	n/a	physics_permanence_fam	physics_permanence_cone_fam	VOE_Exp2	SAXE_NES2_s020	n/a	276981	10.0	n/a	n/a	fam	yes_last4.5s	9.0	cone	physics	permanence	0.9375	stimuli/VOE/physics/permanence_create_one-becomes-two-fan/cone/fam.mp4
235.812	7.5	physics_unexp	n/a	physics_permanence_unexp	physics_permanence_cone_unexp	VOE_Exp2	SAXE_NES2_s020	n/a	284749	10.0	n/a	n/a	unexp	yes_last4.5s	9.0	cone	physics	permanence	0.9375	stimuli/VOE/physics/permanence_create_one-becomes-two-fan/cone/unexp.mp4
243.582	2.0	check	0.6091000000238419	check	check	VOE_Exp2	SAXE_NES2_s020	1.0	287019	10.0	False	True	unexp	yes_last4.5s	9.0	cone	physics	permanence	0.9375	stimuli/VOE/physics/permanence_invisible_discontinuous_two-become-one-occluders/toy/object.png
245.592	7.0	fixation	n/a	fixation	fixation	VOE_Exp2	SAXE_NES2_s020	n/a	294029	10.0	n/a	n/a	n/a	n/a	9.0	cone	n/a	n/a	0.9375	n/a
252.603	7.5	physics_fam	n/a	physics_permanence_fam	physics_permanence_cube_fam	VOE_Exp2	SAXE_NES2_s020	n/a	301540	11.0	n/a	n/a	fam	yes_last4.5s	10.0	cube	physics	permanence	0.9375	stimuli/VOE/physics/permanence_create_one-becomes-two-fan/cube/fam.mp4
260.368	7.5	physics_exp	n/a	physics_permanence_exp	physics_permanence_cube_exp	VOE_Exp2	SAXE_NES2_s020	n/a	309305	11.0	n/a	n/a	exp	yes_last4.5s	10.0	cube	physics	permanence	0.9375	stimuli/VOE/physics/permanence_create_one-becomes-two-fan/cube/exp.mp4
268.131	2.0	check	0.5419000000059605	check	check	VOE_Exp2	SAXE_NES2_s020	1.0	311568	11.0	False	True	exp	yes_last4.5s	10.0	cube	physics	permanence	0.9375	stimuli/VOE/physics/solidity_block_barrier/cube/barrier.png
270.14	7.0	fixation	n/a	fixation	fixation	VOE_Exp2	SAXE_NES2_s020	n/a	318577	11.0	n/a	n/a	n/a	n/a	10.0	cube	n/a	n/a	0.9375	n/a
277.153	7.5	physics_fam	n/a	physics_solidity_fam	physics_solidity_cube_fam	VOE_Exp2	SAXE_NES2_s020	n/a	326090	12.0	n/a	n/a	fam	no	23.0	cube	physics	solidity	0.9375	stimuli/VOE/physics/solidity_block_barrier/cube/fam.mp4
284.923	7.5	physics_unexp	n/a	physics_solidity_unexp	physics_solidity_cube_unexp	VOE_Exp2	SAXE_NES2_s020	n/a	333860	12.0	n/a	n/a	unexp	no	23.0	cube	physics	solidity	0.9375	stimuli/VOE/physics/solidity_block_barrier/cube/unexp.mp4
292.684	2.0	check	0.4828000000119209	check	check	VOE_Exp2	SAXE_NES2_s020	1.0	336121	12.0	False	True	unexp	no	23.0	cube	physics	solidity	0.9375	stimuli/VOE/physics/solidity_exp1/object.png
294.696	9.0	fixation	n/a	fixation	fixation	VOE_Exp2	SAXE_NES2_s020	n/a	345133	12.0	n/a	n/a	n/a	n/a	23.0	cube	n/a	n/a	0.9375	n/a
303.708	7.5	psychology_fam	n/a	psychology_goal_fam	psychology_goal_goal-exp1_fam	VOE_Exp2	SAXE_NES2_s020	n/a	352645	13.0	n/a	n/a	fam	no	2.0	goal-exp1	psychology	goal	0.9375	stimuli/VOE/psychology/goal_exp1/fam.mp4
311.485	7.5	psychology_exp	n/a	psychology_goal_exp	psychology_goal_goal-exp1_exp	VOE_Exp2	SAXE_NES2_s020	n/a	360422	13.0	n/a	n/a	exp	no	2.0	goal-exp1	psychology	goal	0.9375	stimuli/VOE/psychology/goal_exp1/exp.mp4
319.256	2.0	check	0.6016999999880791	check	check	VOE_Exp2	SAXE_NES2_s020	1.0	362693	13.0	False	True	exp	no	2.0	goal-exp1	psychology	goal	0.9375	stimuli/VOE/psychology/efficiency_2.1_noobstacleattest/trial_14_pit/agent.png
321.264	8.0	fixation	n/a	fixation	fixation	VOE_Exp2	SAXE_NES2_s020	n/a	370701	13.0	n/a	n/a	n/a	n/a	2.0	goal-exp1	n/a	n/a	0.9375	n/a
329.273	7.5	psychology_fam	n/a	psychology_efficiency_fam	psychology_efficiency_trial-14-pit_fam	VOE_Exp2	SAXE_NES2_s020	n/a	378210	14.0	n/a	n/a	fam	no	19.0	trial-14-pit	psychology	efficiency	0.9375	stimuli/VOE/psychology/efficiency_2.1_noobstacleattest/trial_14_pit/fam.mp4
337.041	7.5	psychology_exp	n/a	psychology_efficiency_exp	psychology_efficiency_trial-14-pit_exp	VOE_Exp2	SAXE_NES2_s020	n/a	385978	14.0	n/a	n/a	exp	no	19.0	trial-14-pit	psychology	efficiency	0.9375	stimuli/VOE/psychology/efficiency_2.1_noobstacleattest/trial_14_pit/exp.mp4
344.804	2.0	check	1.9876000000238416	check	check	VOE_Exp2	SAXE_NES2_s020	0.0	388241	14.0	False	False	exp	no	19.0	trial-14-pit	psychology	efficiency	0.9375	stimuli/VOE/psychology/efficiency_2.1_noobstacleattest/trial_2_barrier/surface.png
346.812	6.0	fixation	n/a	fixation	fixation	VOE_Exp2	SAXE_NES2_s020	n/a	394249	14.0	n/a	n/a	n/a	n/a	19.0	trial-14-pit	n/a	n/a	0.9375	n/a
352.825	7.5	psychology_fam	n/a	psychology_goal_fam	psychology_goal_trial-9_fam	VOE_Exp2	SAXE_NES2_s020	n/a	401762	15.0	n/a	n/a	fam	yes	16.0	trial-9	psychology	goal	0.9375	stimuli/VOE/psychology/goal_1.1_noobstacles/trial_9/fam_exp.mp4
360.596	7.5	psychology_exp	n/a	psychology_goal_exp	psychology_goal_trial-9_exp	VOE_Exp2	SAXE_NES2_s020	n/a	409533	15.0	n/a	n/a	exp	yes	16.0	trial-9	psychology	goal	0.9375	stimuli/VOE/psychology/goal_1.1_noobstacles/trial_9/test.mp4
368.366	2.0	check	0.9141999999880792	check	check	VOE_Exp2	SAXE_NES2_s020	1.0	411803	15.0	True	True	exp	yes	16.0	trial-9	psychology	goal	0.9375	stimuli/VOE/psychology/goal_1.1_noobstacles/trial_9/agent.png
370.375	9.0	fixation	n/a	fixation	fixation	VOE_Exp2	SAXE_NES2_s020	n/a	420812	15.0	n/a	n/a	n/a	n/a	16.0	trial-9	n/a	n/a	0.9375	n/a
379.385	7.5	physics_fam	n/a	physics_permanence_fam	physics_permanence_toy_fam	VOE_Exp2	SAXE_NES2_s020	n/a	428322	16.0	n/a	n/a	fam	no	27.0	toy	physics	permanence	0.9375	stimuli/VOE/physics/permanence_invisible_discontinuous_two-become-one-occluders/toy/fam.mp4
387.157	7.5	physics_unexp	n/a	physics_permanence_unexp	physics_permanence_toy_unexp	VOE_Exp2	SAXE_NES2_s020	n/a	436094	16.0	n/a	n/a	unexp	no	27.0	toy	physics	permanence	0.9375	stimuli/VOE/physics/permanence_invisible_discontinuous_two-become-one-occluders/toy/unexp.mp4
394.928	2.0	check	0.7737000000178814	check	check	VOE_Exp2	SAXE_NES2_s020	1.0	438365	16.0	True	True	unexp	no	27.0	toy	physics	permanence	0.9375	stimuli/VOE/physics/permanence_invisible_discontinuous_two-become-one-occluders/toy/object.png
396.936	6.0	fixation	n/a	fixation	fixation	VOE_Exp2	SAXE_NES2_s020	n/a	444373	16.0	n/a	n/a	n/a	n/a	27.0	toy	n/a	n/a	0.9375	n/a
402.94	10.0	fixation	n/a	fixation	fixation	VOE_Exp2	SAXE_NES2_s020	n/a	454377	n/a	n/a	n/a	n/a	n/a	n/a	n/a	n/a	n/a	0.9375	n/a
