onset	duration	trial_type	response_time	experimentName	correct	stim_path
0.0	26	rest	n/a	DotsSocPhys	n/a	n/a
234.101	26	rest	n/a	DotsSocPhys	n/a	n/a
468.182	26	rest	n/a	DotsSocPhys	n/a	n/a
26.01	10	physics_incorrect	n/a	DotsSocPhys	n/a	stimuli/DOTS/physics.barriers.i.6.mp4
39.02	10	physics_correct	10.853	DotsSocPhys	1.0	stimuli/DOTS/physics.nobarriers.c.10.mp4
52.023	10	social_incorrect	10.925	DotsSocPhys	1.0	stimuli/DOTS/social.barriers.i.8.mp4
65.02600000000001	10	social_correct	10.993	DotsSocPhys	1.0	stimuli/DOTS/social.barriers.c.9.mp4
78.02799999999999	10	physics_incorrect	11.042	DotsSocPhys	1.0	stimuli/DOTS/physics.barriers.i.4.mp4
91.034	10	physics_correct	11.04	DotsSocPhys	1.0	stimuli/DOTS/physics.barriers.c.7.mp4
104.039	10	physics_incorrect	11.477	DotsSocPhys	1.0	stimuli/DOTS/physics.barriers.i.2.mp4
117.046	10	physics_incorrect	11.079	DotsSocPhys	1.0	stimuli/DOTS/physics.nobarriers.i.7.mp4
130.053	10	social_correct	n/a	DotsSocPhys	n/a	stimuli/DOTS/social.nobarriers.c.6.mp4
143.058	10	social_correct	11.278	DotsSocPhys	1.0	stimuli/DOTS/social.nobarriers.c.8.mp4
156.06199999999998	10	social_correct	n/a	DotsSocPhys	n/a	stimuli/DOTS/social.nobarriers.c.10.mp4
169.07299999999998	10	social_correct	n/a	DotsSocPhys	n/a	stimuli/DOTS/social.barriers.c.1.mp4
182.078	10	physics_incorrect	11.053	DotsSocPhys	1.0	stimuli/DOTS/physics.nobarriers.i.5.mp4
195.081	10	physics_correct	11.197	DotsSocPhys	0.0	stimuli/DOTS/physics.nobarriers.c.6.mp4
208.087	10	social_correct	10.97	DotsSocPhys	1.0	stimuli/DOTS/social.barriers.c.5.mp4
221.095	10	social_correct	11.49	DotsSocPhys	0.0	stimuli/DOTS/social.barriers.c.7.mp4
260.106	10	social_incorrect	11.18	DotsSocPhys	1.0	stimuli/DOTS/social.nobarriers.i.5.mp4
273.111	10	social_incorrect	11.196	DotsSocPhys	0.0	stimuli/DOTS/social.barriers.i.2.mp4
286.118	10	physics_incorrect	10.934	DotsSocPhys	1.0	stimuli/DOTS/physics.nobarriers.i.1.mp4
299.122	10	physics_incorrect	11.056	DotsSocPhys	1.0	stimuli/DOTS/physics.nobarriers.i.3.mp4
312.127	10	social_correct	11.191	DotsSocPhys	1.0	stimuli/DOTS/social.nobarriers.c.2.mp4
325.135	10	social_incorrect	11.498	DotsSocPhys	0.0	stimuli/DOTS/social.nobarriers.i.1.mp4
338.139	10	social_incorrect	10.792	DotsSocPhys	0.0	stimuli/DOTS/social.barriers.i.4.mp4
351.144	10	social_incorrect	n/a	DotsSocPhys	n/a	stimuli/DOTS/social.nobarriers.i.7.mp4
364.147	10	physics_correct	11.015	DotsSocPhys	1.0	stimuli/DOTS/physics.barriers.c.5.mp4
377.15	10	physics_correct	10.794	DotsSocPhys	1.0	stimuli/DOTS/physics.barriers.c.1.mp4
390.153	10	physics_correct	10.804	DotsSocPhys	1.0	stimuli/DOTS/physics.nobarriers.c.8.mp4
403.158	10	physics_correct	n/a	DotsSocPhys	n/a	stimuli/DOTS/physics.nobarriers.c.2.mp4
416.161	10	social_incorrect	n/a	DotsSocPhys	n/a	stimuli/DOTS/social.barriers.i.6.mp4
429.168	10	social_incorrect	n/a	DotsSocPhys	n/a	stimuli/DOTS/social.nobarriers.i.3.mp4
442.174	10	physics_correct	n/a	DotsSocPhys	n/a	stimuli/DOTS/physics.barriers.c.9.mp4
455.178	10	physics_incorrect	10.886	DotsSocPhys	1.0	stimuli/DOTS/physics.barriers.i.8.mp4
