onset	duration	trial_type	response_time	trial_type_specific	trial_type_morespecific	experiment_name	participant	correct	time_elapsed	trial_n	correct_answer	subject_correct	event	identical_tests	stim_ID	scenario_string	domain	task	prop_correct	stim_path
0.0120000000000004	10.0	fixation	n/a	fixation	fixation	VOE_Exp2	SAXE_NES2_s029	n/a	63262	n/a	n/a	n/a	n/a	n/a	n/a	n/a	n/a	n/a	0.9375	n/a
10.027	7.5	psychology_fam	n/a	psychology_efficiency_fam	psychology_efficiency_trial-14-pit_fam	VOE_Exp2	SAXE_NES2_s029	n/a	70777	1.0	n/a	n/a	fam	no	3.0	trial-14-pit	psychology	efficiency	0.9375	stimuli/VOE/psychology/efficiency_2.1_noobstacleattest/trial_14_pit/fam.mp4
17.792	7.5	psychology_unexp	n/a	psychology_efficiency_unexp	psychology_efficiency_trial-14-pit_unexp	VOE_Exp2	SAXE_NES2_s029	n/a	78542	1.0	n/a	n/a	unexp	no	3.0	trial-14-pit	psychology	efficiency	0.9375	stimuli/VOE/psychology/efficiency_2.1_noobstacleattest/trial_14_pit/unexp.mp4
25.557	2.0	check	0.6614000000357628	check	check	VOE_Exp2	SAXE_NES2_s029	1.0	80807	1.0	False	True	unexp	no	3.0	trial-14-pit	psychology	efficiency	0.9375	stimuli/VOE/psychology/goal_exp1/agent.png
27.566000000000003	7.0	fixation	n/a	fixation	fixation	VOE_Exp2	SAXE_NES2_s029	n/a	87816	1.0	n/a	n/a	n/a	n/a	3.0	trial-14-pit	n/a	n/a	0.9375	n/a
34.578	7.5	physics_fam	n/a	physics_permanence_fam	physics_permanence_toy_fam	VOE_Exp2	SAXE_NES2_s029	n/a	95328	2.0	n/a	n/a	fam	no	27.0	toy	physics	permanence	0.9375	stimuli/VOE/physics/permanence_invisible_discontinuous_two-become-one-occluders/toy/fam.mp4
42.351	7.5	physics_unexp	n/a	physics_permanence_unexp	physics_permanence_toy_unexp	VOE_Exp2	SAXE_NES2_s029	n/a	103101	2.0	n/a	n/a	unexp	no	27.0	toy	physics	permanence	0.9375	stimuli/VOE/physics/permanence_invisible_discontinuous_two-become-one-occluders/toy/unexp.mp4
50.124	2.0	check	0.6213999999761581	check	check	VOE_Exp2	SAXE_NES2_s029	1.0	105374	2.0	True	True	unexp	no	27.0	toy	physics	permanence	0.9375	stimuli/VOE/physics/permanence_invisible_discontinuous_two-become-one-occluders/toy/occluder.png
52.133	6.0	fixation	n/a	fixation	fixation	VOE_Exp2	SAXE_NES2_s029	n/a	111383	2.0	n/a	n/a	n/a	n/a	27.0	toy	n/a	n/a	0.9375	n/a
58.142	7.5	psychology_fam	n/a	psychology_goal_fam	psychology_goal_trial-9_fam	VOE_Exp2	SAXE_NES2_s029	n/a	118892	3.0	n/a	n/a	fam	yes	0.0	trial-9	psychology	goal	0.9375	stimuli/VOE/psychology/goal_1.1_noobstacles/trial_9/fam_unexp.mp4
65.914	7.5	psychology_unexp	n/a	psychology_goal_unexp	psychology_goal_trial-9_unexp	VOE_Exp2	SAXE_NES2_s029	n/a	126664	3.0	n/a	n/a	unexp	yes	0.0	trial-9	psychology	goal	0.9375	stimuli/VOE/psychology/goal_1.1_noobstacles/trial_9/test.mp4
73.686	2.0	check	1.354800000011921	check	check	VOE_Exp2	SAXE_NES2_s029	1.0	128936	3.0	False	True	unexp	yes	0.0	trial-9	psychology	goal	0.9375	stimuli/VOE/psychology/efficiency_2.1_noobstacleattest/trial_14_pit/agent.png
75.691	6.0	fixation	n/a	fixation	fixation	VOE_Exp2	SAXE_NES2_s029	n/a	134941	3.0	n/a	n/a	n/a	n/a	0.0	trial-9	n/a	n/a	0.9375	n/a
81.70599999999999	7.5	physics_fam	n/a	physics_solidity_fam	physics_solidity_chair_fam	VOE_Exp2	SAXE_NES2_s029	n/a	142456	4.0	n/a	n/a	fam	no	6.0	chair	physics	solidity	0.9375	stimuli/VOE/physics/solidity_long_overturn_fan/chair/fam.mp4
89.483	7.5	physics_unexp	n/a	physics_solidity_unexp	physics_solidity_chair_unexp	VOE_Exp2	SAXE_NES2_s029	n/a	150233	4.0	n/a	n/a	unexp	no	6.0	chair	physics	solidity	0.9375	stimuli/VOE/physics/solidity_long_overturn_fan/chair/unexp.mp4
97.257	2.0	check	0.7509000000357627	check	check	VOE_Exp2	SAXE_NES2_s029	1.0	152507	4.0	False	True	unexp	no	6.0	chair	physics	solidity	0.9375	stimuli/VOE/physics/permanence_invisible_discontinuous_two-become-one-occluders/toy/occluder.png
99.269	7.0	fixation	n/a	fixation	fixation	VOE_Exp2	SAXE_NES2_s029	n/a	159519	4.0	n/a	n/a	n/a	n/a	6.0	chair	n/a	n/a	0.9375	n/a
106.282	7.5	physics_fam	n/a	physics_solidity_fam	physics_solidity_cube_fam	VOE_Exp2	SAXE_NES2_s029	n/a	167032	5.0	n/a	n/a	fam	no	7.0	cube	physics	solidity	0.9375	stimuli/VOE/physics/solidity_block_barrier/cube/fam.mp4
114.057	7.5	physics_exp	n/a	physics_solidity_exp	physics_solidity_cube_exp	VOE_Exp2	SAXE_NES2_s029	n/a	174807	5.0	n/a	n/a	exp	no	7.0	cube	physics	solidity	0.9375	stimuli/VOE/physics/solidity_block_barrier/cube/exp.mp4
121.821	2.0	check	1.0554000000357628	check	check	VOE_Exp2	SAXE_NES2_s029	0.0	177071	5.0	False	False	exp	no	7.0	cube	physics	solidity	0.9375	stimuli/VOE/physics/solidity_exp1/occluder.png
123.829	7.0	fixation	n/a	fixation	fixation	VOE_Exp2	SAXE_NES2_s029	n/a	184079	5.0	n/a	n/a	n/a	n/a	7.0	cube	n/a	n/a	0.9375	n/a
130.837	7.5	psychology_fam	n/a	psychology_efficiency_fam	psychology_efficiency_trial-2-barrier_fam	VOE_Exp2	SAXE_NES2_s029	n/a	191587	6.0	n/a	n/a	fam	no	4.0	trial-2-barrier	psychology	efficiency	0.9375	stimuli/VOE/psychology/efficiency_2.1_noobstacleattest/trial_2_barrier/fam.mp4
138.606	7.5	psychology_exp	n/a	psychology_efficiency_exp	psychology_efficiency_trial-2-barrier_exp	VOE_Exp2	SAXE_NES2_s029	n/a	199356	6.0	n/a	n/a	exp	no	4.0	trial-2-barrier	psychology	efficiency	0.9375	stimuli/VOE/psychology/efficiency_2.1_noobstacleattest/trial_2_barrier/exp.mp4
146.371	2.0	check	0.6720999999642372	check	check	VOE_Exp2	SAXE_NES2_s029	1.0	201621	6.0	True	True	exp	no	4.0	trial-2-barrier	psychology	efficiency	0.9375	stimuli/VOE/psychology/efficiency_2.1_noobstacleattest/trial_2_barrier/agent.png
148.377	9.0	fixation	n/a	fixation	fixation	VOE_Exp2	SAXE_NES2_s029	n/a	210627	6.0	n/a	n/a	n/a	n/a	4.0	trial-2-barrier	n/a	n/a	0.9375	n/a
157.393	7.5	physics_fam	n/a	physics_solidity_fam	physics_solidity_solidity-exp1_fam	VOE_Exp2	SAXE_NES2_s029	n/a	218143	7.0	n/a	n/a	fam	no	24.0	solidity-exp1	physics	solidity	0.9375	stimuli/VOE/physics/solidity_exp1/fam.mp4
165.169	7.5	physics_exp	n/a	physics_solidity_exp	physics_solidity_solidity-exp1_exp	VOE_Exp2	SAXE_NES2_s029	n/a	225919	7.0	n/a	n/a	exp	no	24.0	solidity-exp1	physics	solidity	0.9375	stimuli/VOE/physics/solidity_exp1/exp.mp4
172.941	2.0	check	0.859	check	check	VOE_Exp2	SAXE_NES2_s029	1.0	228191	7.0	False	True	exp	no	24.0	solidity-exp1	physics	solidity	0.9375	stimuli/VOE/physics/solidity_block_barrier/cube/barrier.png
174.945	10.0	fixation	n/a	fixation	fixation	VOE_Exp2	SAXE_NES2_s029	n/a	238195	7.0	n/a	n/a	n/a	n/a	24.0	solidity-exp1	n/a	n/a	0.9375	n/a
184.957	7.5	physics_fam	n/a	physics_permanence_fam	physics_permanence_cube_fam	VOE_Exp2	SAXE_NES2_s029	n/a	245707	8.0	n/a	n/a	fam	yes_last4.5s	10.0	cube	physics	permanence	0.9375	stimuli/VOE/physics/permanence_create_one-becomes-two-fan/cube/fam.mp4
192.725	7.5	physics_exp	n/a	physics_permanence_exp	physics_permanence_cube_exp	VOE_Exp2	SAXE_NES2_s029	n/a	253475	8.0	n/a	n/a	exp	yes_last4.5s	10.0	cube	physics	permanence	0.9375	stimuli/VOE/physics/permanence_create_one-becomes-two-fan/cube/exp.mp4
200.49	2.0	check	0.6824000000357627	check	check	VOE_Exp2	SAXE_NES2_s029	1.0	255740	8.0	False	True	exp	yes_last4.5s	10.0	cube	physics	permanence	0.9375	stimuli/VOE/physics/permanence_invisible_discontinuous_two-become-one-occluders/toy/occluder.png
202.501	8.0	fixation	n/a	fixation	fixation	VOE_Exp2	SAXE_NES2_s029	n/a	263751	8.0	n/a	n/a	n/a	n/a	10.0	cube	n/a	n/a	0.9375	n/a
210.511	7.5	both_fam	n/a	both_agent-solidity_fam	both_agent-solidity_trial-19_fam	VOE_Exp2	SAXE_NES2_s029	n/a	271261	9.0	n/a	n/a	fam	no	15.0	trial-19	both	agent-solidity	0.9375	stimuli/VOE/physics-psychology/efficiency_2.5_agent-solidity/trial_19/fam.mp4
218.281	7.5	both_exp	n/a	both_agent-solidity_exp	both_agent-solidity_trial-19_exp	VOE_Exp2	SAXE_NES2_s029	n/a	279031	9.0	n/a	n/a	exp	no	15.0	trial-19	both	agent-solidity	0.9375	stimuli/VOE/physics-psychology/efficiency_2.5_agent-solidity/trial_19/exp.mp4
226.05	2.0	check	0.9918999999761582	check	check	VOE_Exp2	SAXE_NES2_s029	1.0	281300	9.0	True	True	exp	no	15.0	trial-19	both	agent-solidity	0.9375	stimuli/VOE/physics-psychology/efficiency_2.5_agent-solidity/trial_19/agent.png
228.06	7.0	fixation	n/a	fixation	fixation	VOE_Exp2	SAXE_NES2_s029	n/a	288310	9.0	n/a	n/a	n/a	n/a	15.0	trial-19	n/a	n/a	0.9375	n/a
235.072	7.5	psychology_fam	n/a	psychology_goal_fam	psychology_goal_trial-16-pedestal_fam	VOE_Exp2	SAXE_NES2_s029	n/a	295822	10.0	n/a	n/a	fam	yes	17.0	trial-16-pedestal	psychology	goal	0.9375	stimuli/VOE/psychology/goal_1.1_obstacles/trial_16_pedestal/fam_unexp.mp4
242.838	7.5	psychology_unexp	n/a	psychology_goal_unexp	psychology_goal_trial-16-pedestal_unexp	VOE_Exp2	SAXE_NES2_s029	n/a	303588	10.0	n/a	n/a	unexp	yes	17.0	trial-16-pedestal	psychology	goal	0.9375	stimuli/VOE/psychology/goal_1.1_obstacles/trial_16_pedestal/test.mp4
250.602	2.0	check	0.8888000000119209	check	check	VOE_Exp2	SAXE_NES2_s029	1.0	305852	10.0	True	True	unexp	yes	17.0	trial-16-pedestal	psychology	goal	0.9375	stimuli/VOE/psychology/goal_1.1_obstacles/trial_16_pedestal/object.png
252.612	6.0	fixation	n/a	fixation	fixation	VOE_Exp2	SAXE_NES2_s029	n/a	311862	10.0	n/a	n/a	n/a	n/a	17.0	trial-16-pedestal	n/a	n/a	0.9375	n/a
258.623	7.5	both_fam	n/a	both_infer-constraint_fam	both_infer-constraint_trial-5-over_fam	VOE_Exp2	SAXE_NES2_s029	n/a	319373	11.0	n/a	n/a	fam	no	28.0	trial-5-over	both	infer-constraint	0.9375	stimuli/VOE/physics-psychology/infer_constraint_3.1/trial_5_over/fam.mp4
266.389	7.5	both_exp	n/a	both_infer-constraint_exp	both_infer-constraint_trial-5-over_exp	VOE_Exp2	SAXE_NES2_s029	n/a	327139	11.0	n/a	n/a	exp	no	28.0	trial-5-over	both	infer-constraint	0.9375	stimuli/VOE/physics-psychology/infer_constraint_3.1/trial_5_over/exp.mp4
274.152	2.0	check	1.533100000023842	check	check	VOE_Exp2	SAXE_NES2_s029	1.0	329402	11.0	True	True	exp	no	28.0	trial-5-over	both	infer-constraint	0.9375	stimuli/VOE/physics-psychology/infer_constraint_3.1/trial_5_over/agent.png
276.162	5.0	fixation	n/a	fixation	fixation	VOE_Exp2	SAXE_NES2_s029	n/a	334412	11.0	n/a	n/a	n/a	n/a	28.0	trial-5-over	n/a	n/a	0.9375	n/a
281.173	7.5	psychology_fam	n/a	psychology_goal_fam	psychology_goal_goal-exp1_fam	VOE_Exp2	SAXE_NES2_s029	n/a	341923	12.0	n/a	n/a	fam	no	18.0	goal-exp1	psychology	goal	0.9375	stimuli/VOE/psychology/goal_exp1/fam.mp4
288.944	7.5	psychology_unexp	n/a	psychology_goal_unexp	psychology_goal_goal-exp1_unexp	VOE_Exp2	SAXE_NES2_s029	n/a	349694	12.0	n/a	n/a	unexp	no	18.0	goal-exp1	psychology	goal	0.9375	stimuli/VOE/psychology/goal_exp1/unexp.mp4
296.724	2.0	check	0.8406000000238418	check	check	VOE_Exp2	SAXE_NES2_s029	1.0	351974	12.0	True	True	unexp	no	18.0	goal-exp1	psychology	goal	0.9375	stimuli/VOE/psychology/goal_exp1/surface.png
298.732	5.0	fixation	n/a	fixation	fixation	VOE_Exp2	SAXE_NES2_s029	n/a	356982	12.0	n/a	n/a	n/a	n/a	18.0	goal-exp1	n/a	n/a	0.9375	n/a
303.743	7.5	both_fam	n/a	both_infer-constraint_fam	both_infer-constraint_trial-34-around_fam	VOE_Exp2	SAXE_NES2_s029	n/a	364493	13.0	n/a	n/a	fam	no	13.0	trial-34-around	both	infer-constraint	0.9375	stimuli/VOE/physics-psychology/infer_constraint_3.1/trial_34_around/fam.mp4
311.509	7.5	both_exp	n/a	both_infer-constraint_exp	both_infer-constraint_trial-34-around_exp	VOE_Exp2	SAXE_NES2_s029	n/a	372259	13.0	n/a	n/a	exp	no	13.0	trial-34-around	both	infer-constraint	0.9375	stimuli/VOE/physics-psychology/infer_constraint_3.1/trial_34_around/exp.mp4
319.273	2.0	check	0.8103999999761582	check	check	VOE_Exp2	SAXE_NES2_s029	1.0	374523	13.0	False	True	exp	no	13.0	trial-34-around	both	infer-constraint	0.9375	stimuli/VOE/physics-psychology/efficiency_2.5_agent-solidity/trial_19/object.png
321.283	8.0	fixation	n/a	fixation	fixation	VOE_Exp2	SAXE_NES2_s029	n/a	382533	13.0	n/a	n/a	n/a	n/a	13.0	trial-34-around	n/a	n/a	0.9375	n/a
329.293	7.5	physics_fam	n/a	physics_permanence_fam	physics_permanence_cone_fam	VOE_Exp2	SAXE_NES2_s029	n/a	390043	14.0	n/a	n/a	fam	yes_last4.5s	25.0	cone	physics	permanence	0.9375	stimuli/VOE/physics/permanence_create_one-becomes-two-fan/cone/fam.mp4
337.056	7.5	physics_exp	n/a	physics_permanence_exp	physics_permanence_cone_exp	VOE_Exp2	SAXE_NES2_s029	n/a	397806	14.0	n/a	n/a	exp	yes_last4.5s	25.0	cone	physics	permanence	0.9375	stimuli/VOE/physics/permanence_create_one-becomes-two-fan/cone/exp.mp4
344.825	2.0	check	1.235300000011921	check	check	VOE_Exp2	SAXE_NES2_s029	1.0	400075	14.0	True	True	exp	yes_last4.5s	25.0	cone	physics	permanence	0.9375	stimuli/VOE/physics/permanence_create_one-becomes-two-fan/cone/object2.png
346.834	8.0	fixation	n/a	fixation	fixation	VOE_Exp2	SAXE_NES2_s029	n/a	408084	14.0	n/a	n/a	n/a	n/a	25.0	cone	n/a	n/a	0.9375	n/a
354.843	7.5	both_fam	n/a	both_agent-solidity_fam	both_agent-solidity_trial-11_fam	VOE_Exp2	SAXE_NES2_s029	n/a	415593	15.0	n/a	n/a	fam	no	14.0	trial-11	both	agent-solidity	0.9375	stimuli/VOE/physics-psychology/efficiency_2.5_agent-solidity/trial_11/fam.mp4
362.612	7.5	both_unexp	n/a	both_agent-solidity_unexp	both_agent-solidity_trial-11_unexp	VOE_Exp2	SAXE_NES2_s029	n/a	423362	15.0	n/a	n/a	unexp	no	14.0	trial-11	both	agent-solidity	0.9375	stimuli/VOE/physics-psychology/efficiency_2.5_agent-solidity/trial_11/unexp.mp4
370.377	2.0	check	1.099199999988079	check	check	VOE_Exp2	SAXE_NES2_s029	1.0	425627	15.0	False	True	unexp	no	14.0	trial-11	both	agent-solidity	0.9375	stimuli/VOE/physics-psychology/infer_constraint_3.1/trial_34_around/surface.png
372.383	9.0	fixation	n/a	fixation	fixation	VOE_Exp2	SAXE_NES2_s029	n/a	434633	15.0	n/a	n/a	n/a	n/a	14.0	trial-11	n/a	n/a	0.9375	n/a
381.395	7.5	psychology_fam	n/a	psychology_efficiency_fam	psychology_efficiency_efficiency-exp1_fam	VOE_Exp2	SAXE_NES2_s029	n/a	442145	16.0	n/a	n/a	fam	no	21.0	efficiency-exp1	psychology	efficiency	0.9375	stimuli/VOE/psychology/efficiency_exp1/fam.mp4
389.166	7.5	psychology_exp	n/a	psychology_efficiency_exp	psychology_efficiency_efficiency-exp1_exp	VOE_Exp2	SAXE_NES2_s029	n/a	449916	16.0	n/a	n/a	exp	no	21.0	efficiency-exp1	psychology	efficiency	0.9375	stimuli/VOE/psychology/efficiency_exp1/exp.mp4
396.929	2.0	check	1.2391999999880792	check	check	VOE_Exp2	SAXE_NES2_s029	1.0	452179	16.0	True	True	exp	no	21.0	efficiency-exp1	psychology	efficiency	0.9375	stimuli/VOE/psychology/efficiency_exp1/surface.png
398.939	4.0	fixation	n/a	fixation	fixation	VOE_Exp2	SAXE_NES2_s029	n/a	456189	16.0	n/a	n/a	n/a	n/a	21.0	efficiency-exp1	n/a	n/a	0.9375	n/a
402.947	10.0	fixation	n/a	fixation	fixation	VOE_Exp2	SAXE_NES2_s029	n/a	466197	n/a	n/a	n/a	n/a	n/a	n/a	n/a	n/a	n/a	0.9375	n/a
