onset	duration	trial_type	response_time	experimentName	correct	stim_path
0.0	26	rest	n/a	DotsSocPhys	n/a	n/a
234.081	26	rest	n/a	DotsSocPhys	n/a	n/a
468.148	26	rest	n/a	DotsSocPhys	n/a	n/a
26.009	10	social_incorrect	n/a	DotsSocPhys	n/a	stimuli/DOTS/social.nobarriers.i.7.mp4
39.015	10	social_correct	10.992	DotsSocPhys	1.0	stimuli/DOTS/social.nobarriers.c.6.mp4
52.022000000000006	10	physics_incorrect	11.372	DotsSocPhys	1.0	stimuli/DOTS/physics.nobarriers.i.5.mp4
65.028	10	physics_correct	11.337	DotsSocPhys	1.0	stimuli/DOTS/physics.nobarriers.c.6.mp4
78.03	10	social_incorrect	11.204	DotsSocPhys	1.0	stimuli/DOTS/social.barriers.i.8.mp4
91.033	10	social_correct	n/a	DotsSocPhys	n/a	stimuli/DOTS/social.barriers.c.9.mp4
104.034	10	social_incorrect	11.011	DotsSocPhys	0.0	stimuli/DOTS/social.barriers.i.2.mp4
117.037	10	social_incorrect	11.349	DotsSocPhys	0.0	stimuli/DOTS/social.nobarriers.i.5.mp4
130.043	10	physics_incorrect	11.226	DotsSocPhys	1.0	stimuli/DOTS/physics.nobarriers.i.3.mp4
143.04700000000005	10	physics_incorrect	11.201	DotsSocPhys	1.0	stimuli/DOTS/physics.barriers.i.2.mp4
156.05399999999997	10	physics_incorrect	11.096	DotsSocPhys	1.0	stimuli/DOTS/physics.barriers.i.8.mp4
169.05700000000002	10	physics_correct	11.332	DotsSocPhys	1.0	stimuli/DOTS/physics.barriers.c.5.mp4
182.063	10	social_correct	11.061	DotsSocPhys	1.0	stimuli/DOTS/social.nobarriers.c.2.mp4
195.068	10	social_incorrect	10.899	DotsSocPhys	1.0	stimuli/DOTS/social.barriers.i.4.mp4
208.072	10	physics_incorrect	n/a	DotsSocPhys	n/a	stimuli/DOTS/physics.barriers.i.4.mp4
221.07800000000003	10	physics_correct	10.763	DotsSocPhys	1.0	stimuli/DOTS/physics.barriers.c.1.mp4
260.082	10	physics_incorrect	11.008	DotsSocPhys	1.0	stimuli/DOTS/physics.nobarriers.i.1.mp4
273.087	10	physics_correct	n/a	DotsSocPhys	n/a	stimuli/DOTS/physics.barriers.c.9.mp4
286.09000000000003	10	social_correct	10.984	DotsSocPhys	1.0	stimuli/DOTS/social.nobarriers.c.8.mp4
299.094	10	social_correct	11.38	DotsSocPhys	1.0	stimuli/DOTS/social.nobarriers.c.10.mp4
312.09700000000004	10	physics_incorrect	10.969	DotsSocPhys	1.0	stimuli/DOTS/physics.nobarriers.i.7.mp4
325.099	10	physics_correct	n/a	DotsSocPhys	n/a	stimuli/DOTS/physics.nobarriers.c.8.mp4
338.10400000000004	10	physics_correct	11.21	DotsSocPhys	1.0	stimuli/DOTS/physics.barriers.c.7.mp4
351.112	10	physics_correct	10.795	DotsSocPhys	1.0	stimuli/DOTS/physics.nobarriers.c.10.mp4
364.114	10	social_incorrect	11.196	DotsSocPhys	1.0	stimuli/DOTS/social.nobarriers.i.3.mp4
377.117	10	social_correct	10.998	DotsSocPhys	1.0	stimuli/DOTS/social.barriers.c.5.mp4
390.121	10	social_correct	n/a	DotsSocPhys	n/a	stimuli/DOTS/social.barriers.c.1.mp4
403.124	10	social_correct	11.303	DotsSocPhys	0.0	stimuli/DOTS/social.barriers.c.7.mp4
416.127	10	physics_correct	10.878	DotsSocPhys	1.0	stimuli/DOTS/physics.nobarriers.c.2.mp4
429.129	10	physics_incorrect	n/a	DotsSocPhys	n/a	stimuli/DOTS/physics.barriers.i.6.mp4
442.132	10	social_incorrect	11.03	DotsSocPhys	1.0	stimuli/DOTS/social.nobarriers.i.1.mp4
455.139	10	social_incorrect	11.262	DotsSocPhys	1.0	stimuli/DOTS/social.barriers.i.6.mp4
