onset	duration	trial_type	response_time	trial_type_specific	trial_type_morespecific	experiment_name	participant	correct	time_elapsed	trial_n	correct_answer	subject_correct	event	identical_tests	stim_ID	scenario_string	domain	task	prop_correct	stim_path
0.0050000000000025	10.0	fixation	n/a	fixation	fixation	VOE_Exp2	SAXE_NES2_s028	n/a	38847	n/a	n/a	n/a	n/a	n/a	n/a	n/a	n/a	n/a	0.9375	n/a
10.021999999999998	7.5	physics_fam	n/a	physics_solidity_fam	physics_solidity_cone_fam	VOE_Exp2	SAXE_NES2_s028	n/a	46364	1.0	n/a	n/a	fam	no	54.0	cone	physics	solidity	0.9375	stimuli/VOE/physics/solidity_long_overturn_fan/cone/fam.mp4
17.795	7.5	physics_exp	n/a	physics_solidity_exp	physics_solidity_cone_exp	VOE_Exp2	SAXE_NES2_s028	n/a	54137	1.0	n/a	n/a	exp	no	54.0	cone	physics	solidity	0.9375	stimuli/VOE/physics/solidity_long_overturn_fan/cone/exp.mp4
25.561	2.0	check	0.7659000000357628	check	check	VOE_Exp2	SAXE_NES2_s028	1.0	56403	1.0	True	True	exp	no	54.0	cone	physics	solidity	0.9375	stimuli/VOE/physics/solidity_long_overturn_fan/cone/occluder.png
27.569000000000003	5.0	fixation	n/a	fixation	fixation	VOE_Exp2	SAXE_NES2_s028	n/a	61411	1.0	n/a	n/a	n/a	n/a	54.0	cone	n/a	n/a	0.9375	n/a
32.577	7.5	psychology_fam	n/a	psychology_goal_fam	psychology_goal_trial-1_fam	VOE_Exp2	SAXE_NES2_s028	n/a	68919	2.0	n/a	n/a	fam	no	32.0	trial-1	psychology	goal	0.9375	stimuli/VOE/psychology/goal_1.1_noobstacles/trial_1/fam.mp4
40.346	7.5	psychology_unexp	n/a	psychology_goal_unexp	psychology_goal_trial-1_unexp	VOE_Exp2	SAXE_NES2_s028	n/a	76688	2.0	n/a	n/a	unexp	no	32.0	trial-1	psychology	goal	0.9375	stimuli/VOE/psychology/goal_1.1_noobstacles/trial_1/unexp.mp4
48.109	2.0	check	1.326	check	check	VOE_Exp2	SAXE_NES2_s028	1.0	78951	2.0	True	True	unexp	no	32.0	trial-1	psychology	goal	0.9375	stimuli/VOE/psychology/goal_1.1_noobstacles/trial_1/object.png
50.120000000000005	7.0	fixation	n/a	fixation	fixation	VOE_Exp2	SAXE_NES2_s028	n/a	85962	2.0	n/a	n/a	n/a	n/a	32.0	trial-1	n/a	n/a	0.9375	n/a
57.133	7.5	physics_fam	n/a	physics_solidity_fam	physics_solidity_rectangular_fam	VOE_Exp2	SAXE_NES2_s028	n/a	93475	3.0	n/a	n/a	fam	no	39.0	rectangular	physics	solidity	0.9375	stimuli/VOE/physics/solidity_block_barrier/rectangular/fam.mp4
64.909	7.5	physics_exp	n/a	physics_solidity_exp	physics_solidity_rectangular_exp	VOE_Exp2	SAXE_NES2_s028	n/a	101251	3.0	n/a	n/a	exp	no	39.0	rectangular	physics	solidity	0.9375	stimuli/VOE/physics/solidity_block_barrier/rectangular/exp.mp4
72.68	2.0	check	0.7655	check	check	VOE_Exp2	SAXE_NES2_s028	1.0	103522	3.0	True	True	exp	no	39.0	rectangular	physics	solidity	0.9375	stimuli/VOE/physics/solidity_block_barrier/rectangular/barrier.png
74.688	5.0	fixation	n/a	fixation	fixation	VOE_Exp2	SAXE_NES2_s028	n/a	108530	3.0	n/a	n/a	n/a	n/a	39.0	rectangular	n/a	n/a	0.9375	n/a
79.699	7.5	psychology_fam	n/a	psychology_efficiency_fam	psychology_efficiency_trial-2-over_fam	VOE_Exp2	SAXE_NES2_s028	n/a	116041	4.0	n/a	n/a	fam	no	52.0	trial-2-over	psychology	efficiency	0.9375	stimuli/VOE/psychology/efficiency_2.3_obstacleattest/trial_2_over/fam.mp4
87.464	7.5	psychology_unexp	n/a	psychology_efficiency_unexp	psychology_efficiency_trial-2-over_unexp	VOE_Exp2	SAXE_NES2_s028	n/a	123806	4.0	n/a	n/a	unexp	no	52.0	trial-2-over	psychology	efficiency	0.9375	stimuli/VOE/psychology/efficiency_2.3_obstacleattest/trial_2_over/unexp.mp4
95.229	2.0	check	0.792699999988079	check	check	VOE_Exp2	SAXE_NES2_s028	1.0	126071	4.0	False	True	unexp	no	52.0	trial-2-over	psychology	efficiency	0.9375	stimuli/VOE/psychology/efficiency_2.3_obstacleattest/trial_15_over/object.png
97.237	6.0	fixation	n/a	fixation	fixation	VOE_Exp2	SAXE_NES2_s028	n/a	132079	4.0	n/a	n/a	n/a	n/a	52.0	trial-2-over	n/a	n/a	0.9375	n/a
103.251	7.5	both_fam	n/a	both_agent-solidity_fam	both_agent-solidity_trial-19_fam	VOE_Exp2	SAXE_NES2_s028	n/a	139593	5.0	n/a	n/a	fam	no	47.0	trial-19	both	agent-solidity	0.9375	stimuli/VOE/physics-psychology/efficiency_2.5_agent-solidity/trial_19/fam.mp4
111.016	7.5	both_exp	n/a	both_agent-solidity_exp	both_agent-solidity_trial-19_exp	VOE_Exp2	SAXE_NES2_s028	n/a	147358	5.0	n/a	n/a	exp	no	47.0	trial-19	both	agent-solidity	0.9375	stimuli/VOE/physics-psychology/efficiency_2.5_agent-solidity/trial_19/exp.mp4
118.782	2.0	check	0.7042000000476837	check	check	VOE_Exp2	SAXE_NES2_s028	1.0	149624	5.0	False	True	exp	no	47.0	trial-19	both	infer-constraint	0.9375	stimuli/VOE/physics-psychology/infer_constraint_3.1/trial_34_around/agent.png
120.791	7.0	fixation	n/a	fixation	fixation	VOE_Exp2	SAXE_NES2_s028	n/a	156633	5.0	n/a	n/a	n/a	n/a	47.0	trial-19	n/a	n/a	0.9375	n/a
127.801	7.5	physics_fam	n/a	physics_permanence_fam	physics_permanence_sphere_fam	VOE_Exp2	SAXE_NES2_s028	n/a	164143	6.0	n/a	n/a	fam	no	42.0	sphere	physics	permanence	0.9375	stimuli/VOE/physics/permanence_invisible_discontinuous_two-become-one-occluders/sphere/fam.mp4
135.567	7.5	physics_exp	n/a	physics_permanence_exp	physics_permanence_sphere_exp	VOE_Exp2	SAXE_NES2_s028	n/a	171909	6.0	n/a	n/a	exp	no	42.0	sphere	physics	permanence	0.9375	stimuli/VOE/physics/permanence_invisible_discontinuous_two-become-one-occluders/sphere/exp.mp4
143.33100000000002	2.0	check	0.5696999999880791	check	check	VOE_Exp2	SAXE_NES2_s028	1.0	174173	6.0	True	True	exp	no	42.0	sphere	physics	permanence	0.9375	stimuli/VOE/physics/permanence_invisible_discontinuous_two-become-one-occluders/sphere/object.png
145.34300000000002	8.0	fixation	n/a	fixation	fixation	VOE_Exp2	SAXE_NES2_s028	n/a	182185	6.0	n/a	n/a	n/a	n/a	42.0	sphere	n/a	n/a	0.9375	n/a
153.35399999999998	7.5	both_fam	n/a	both_infer-constraint_fam	both_infer-constraint_trial-5-over_fam	VOE_Exp2	SAXE_NES2_s028	n/a	189696	7.0	n/a	n/a	fam	no	44.0	trial-5-over	both	infer-constraint	0.9375	stimuli/VOE/physics-psychology/infer_constraint_3.1/trial_5_over/fam.mp4
161.122	7.5	both_unexp	n/a	both_infer-constraint_unexp	both_infer-constraint_trial-5-over_unexp	VOE_Exp2	SAXE_NES2_s028	n/a	197464	7.0	n/a	n/a	unexp	no	44.0	trial-5-over	both	infer-constraint	0.9375	stimuli/VOE/physics-psychology/infer_constraint_3.1/trial_5_over/unexp.mp4
168.884	2.0	check	0.5564000000357627	check	check	VOE_Exp2	SAXE_NES2_s028	1.0	199726	7.0	True	True	unexp	no	44.0	trial-5-over	both	agent-solidity	0.9375	stimuli/VOE/physics-psychology/infer_constraint_3.1/trial_5_over/object.png
170.894	7.0	fixation	n/a	fixation	fixation	VOE_Exp2	SAXE_NES2_s028	n/a	206736	7.0	n/a	n/a	n/a	n/a	44.0	trial-5-over	n/a	n/a	0.9375	n/a
177.902	7.5	physics_fam	n/a	physics_solidity_fam	physics_solidity_sphere_fam	VOE_Exp2	SAXE_NES2_s028	n/a	214244	8.0	n/a	n/a	fam	no	40.0	sphere	physics	solidity	0.9375	stimuli/VOE/physics/solidity_block_barrier/sphere/fam.mp4
185.675	7.5	physics_unexp	n/a	physics_solidity_unexp	physics_solidity_sphere_unexp	VOE_Exp2	SAXE_NES2_s028	n/a	222017	8.0	n/a	n/a	unexp	no	40.0	sphere	physics	solidity	0.9375	stimuli/VOE/physics/solidity_block_barrier/sphere/unexp.mp4
193.442	2.0	check	0.8991999999880791	check	check	VOE_Exp2	SAXE_NES2_s028	1.0	224284	8.0	True	True	unexp	no	40.0	sphere	physics	solidity	0.9375	stimuli/VOE/physics/solidity_block_barrier/sphere/barrier.png
195.45	8.0	fixation	n/a	fixation	fixation	VOE_Exp2	SAXE_NES2_s028	n/a	232292	8.0	n/a	n/a	n/a	n/a	40.0	sphere	n/a	n/a	0.9375	n/a
203.464	7.5	both_fam	n/a	both_infer-constraint_fam	both_infer-constraint_trial-34-around_fam	VOE_Exp2	SAXE_NES2_s028	n/a	239806	9.0	n/a	n/a	fam	no	45.0	trial-34-around	both	infer-constraint	0.9375	stimuli/VOE/physics-psychology/infer_constraint_3.1/trial_34_around/fam.mp4
211.23	7.5	both_exp	n/a	both_infer-constraint_exp	both_infer-constraint_trial-34-around_exp	VOE_Exp2	SAXE_NES2_s028	n/a	247572	9.0	n/a	n/a	exp	no	45.0	trial-34-around	both	infer-constraint	0.9375	stimuli/VOE/physics-psychology/infer_constraint_3.1/trial_34_around/exp.mp4
218.99400000000003	2.0	check	0.6946999999880791	check	check	VOE_Exp2	SAXE_NES2_s028	1.0	249836	9.0	True	True	exp	no	45.0	trial-34-around	both	agent-solidity	0.9375	stimuli/VOE/physics-psychology/infer_constraint_3.1/trial_34_around/agent.png
221.00600000000003	8.0	fixation	n/a	fixation	fixation	VOE_Exp2	SAXE_NES2_s028	n/a	257848	9.0	n/a	n/a	n/a	n/a	45.0	trial-34-around	n/a	n/a	0.9375	n/a
229.016	7.5	psychology_fam	n/a	psychology_efficiency_fam	psychology_efficiency_trial-15-over_fam	VOE_Exp2	SAXE_NES2_s028	n/a	265358	10.0	n/a	n/a	fam	no	51.0	trial-15-over	psychology	efficiency	0.9375	stimuli/VOE/psychology/efficiency_2.3_obstacleattest/trial_15_over/fam.mp4
236.79200000000003	7.5	psychology_exp	n/a	psychology_efficiency_exp	psychology_efficiency_trial-15-over_exp	VOE_Exp2	SAXE_NES2_s028	n/a	273134	10.0	n/a	n/a	exp	no	51.0	trial-15-over	psychology	efficiency	0.9375	stimuli/VOE/psychology/efficiency_2.3_obstacleattest/trial_15_over/exp.mp4
244.557	2.0	check	0.6214000000357628	check	check	VOE_Exp2	SAXE_NES2_s028	1.0	275399	10.0	False	True	exp	no	51.0	trial-15-over	psychology	efficiency	0.9375	stimuli/VOE/psychology/goal_1.1_obstacles/trial_21_ramp/object.png
246.565	10.0	fixation	n/a	fixation	fixation	VOE_Exp2	SAXE_NES2_s028	n/a	285407	10.0	n/a	n/a	n/a	n/a	51.0	trial-15-over	n/a	n/a	0.9375	n/a
256.574	7.5	both_fam	n/a	both_agent-solidity_fam	both_agent-solidity_trial-11_fam	VOE_Exp2	SAXE_NES2_s028	n/a	292916	11.0	n/a	n/a	fam	no	46.0	trial-11	both	agent-solidity	0.9375	stimuli/VOE/physics-psychology/efficiency_2.5_agent-solidity/trial_11/fam.mp4
264.344	7.5	both_unexp	n/a	both_agent-solidity_unexp	both_agent-solidity_trial-11_unexp	VOE_Exp2	SAXE_NES2_s028	n/a	300686	11.0	n/a	n/a	unexp	no	46.0	trial-11	both	agent-solidity	0.9375	stimuli/VOE/physics-psychology/efficiency_2.5_agent-solidity/trial_11/unexp.mp4
272.11600000000004	2.0	check	0.831	check	check	VOE_Exp2	SAXE_NES2_s028	1.0	302958	11.0	False	True	unexp	no	46.0	trial-11	both	infer-constraint	0.9375	stimuli/VOE/physics-psychology/infer_constraint_3.1/trial_34_around/agent.png
274.12100000000004	9.0	fixation	n/a	fixation	fixation	VOE_Exp2	SAXE_NES2_s028	n/a	311963	11.0	n/a	n/a	n/a	n/a	46.0	trial-11	n/a	n/a	0.9375	n/a
283.137	7.5	physics_fam	n/a	physics_permanence_fam	physics_permanence_boot_fam	VOE_Exp2	SAXE_NES2_s028	n/a	319479	12.0	n/a	n/a	fam	yes_last4.5s	41.0	boot	physics	permanence	0.9375	stimuli/VOE/physics/permanence_create_one-becomes-two-fan/boot/fam.mp4
290.913	7.5	physics_unexp	n/a	physics_permanence_unexp	physics_permanence_boot_unexp	VOE_Exp2	SAXE_NES2_s028	n/a	327255	12.0	n/a	n/a	unexp	yes_last4.5s	41.0	boot	physics	permanence	0.9375	stimuli/VOE/physics/permanence_create_one-becomes-two-fan/boot/unexp.mp4
298.68100000000004	2.0	check	0.6048000000119209	check	check	VOE_Exp2	SAXE_NES2_s028	1.0	329523	12.0	False	True	unexp	yes_last4.5s	41.0	boot	physics	permanence	0.9375	stimuli/VOE/physics/permanence_invisible_discontinuous_two-become-one-occluders/lantern/object.png
300.692	4.0	fixation	n/a	fixation	fixation	VOE_Exp2	SAXE_NES2_s028	n/a	333534	12.0	n/a	n/a	n/a	n/a	41.0	boot	n/a	n/a	0.9375	n/a
304.70500000000004	7.5	psychology_fam	n/a	psychology_efficiency_fam	psychology_efficiency_trial-9-over_fam	VOE_Exp2	SAXE_NES2_s028	n/a	341047	13.0	n/a	n/a	fam	no	53.0	trial-9-over	psychology	efficiency	0.9375	stimuli/VOE/psychology/efficiency_2.3_obstacleattest/trial_9_over/fam.mp4
312.48	7.5	psychology_exp	n/a	psychology_efficiency_exp	psychology_efficiency_trial-9-over_exp	VOE_Exp2	SAXE_NES2_s028	n/a	348822	13.0	n/a	n/a	exp	no	53.0	trial-9-over	psychology	efficiency	0.9375	stimuli/VOE/psychology/efficiency_2.3_obstacleattest/trial_9_over/exp.mp4
320.244	2.0	check	0.6976999999880791	check	check	VOE_Exp2	SAXE_NES2_s028	1.0	351086	13.0	False	True	exp	no	53.0	trial-9-over	psychology	efficiency	0.9375	stimuli/VOE/psychology/goal_1.1_obstacles/trial_19_ramp/object.png
322.249	6.0	fixation	n/a	fixation	fixation	VOE_Exp2	SAXE_NES2_s028	n/a	357091	13.0	n/a	n/a	n/a	n/a	53.0	trial-9-over	n/a	n/a	0.9375	n/a
328.262	7.5	psychology_fam	n/a	psychology_goal_fam	psychology_goal_trial-19-ramp_fam	VOE_Exp2	SAXE_NES2_s028	n/a	364604	14.0	n/a	n/a	fam	yes	49.0	trial-19-ramp	psychology	goal	0.9375	stimuli/VOE/psychology/goal_1.1_obstacles/trial_19_ramp/fam_unexp.mp4
336.03200000000004	7.5	psychology_unexp	n/a	psychology_goal_unexp	psychology_goal_trial-19-ramp_unexp	VOE_Exp2	SAXE_NES2_s028	n/a	372374	14.0	n/a	n/a	unexp	yes	49.0	trial-19-ramp	psychology	goal	0.9375	stimuli/VOE/psychology/goal_1.1_obstacles/trial_19_ramp/test.mp4
343.80400000000003	2.0	check	0.952	check	check	VOE_Exp2	SAXE_NES2_s028	0.0	374646	14.0	False	False	unexp	yes	49.0	trial-19-ramp	psychology	goal	0.9375	stimuli/VOE/psychology/goal_1.1_noobstacles/trial_1/surface.png
345.812	9.0	fixation	n/a	fixation	fixation	VOE_Exp2	SAXE_NES2_s028	n/a	383654	14.0	n/a	n/a	n/a	n/a	49.0	trial-19-ramp	n/a	n/a	0.9375	n/a
354.82	7.5	physics_fam	n/a	physics_permanence_fam	physics_permanence_lantern_fam	VOE_Exp2	SAXE_NES2_s028	n/a	391162	15.0	n/a	n/a	fam	no	43.0	lantern	physics	permanence	0.9375	stimuli/VOE/physics/permanence_invisible_discontinuous_two-become-one-occluders/lantern/fam.mp4
362.591	7.5	physics_exp	n/a	physics_permanence_exp	physics_permanence_lantern_exp	VOE_Exp2	SAXE_NES2_s028	n/a	398933	15.0	n/a	n/a	exp	no	43.0	lantern	physics	permanence	0.9375	stimuli/VOE/physics/permanence_invisible_discontinuous_two-become-one-occluders/lantern/exp.mp4
370.354	2.0	check	0.7163999999761581	check	check	VOE_Exp2	SAXE_NES2_s028	1.0	401196	15.0	True	True	exp	no	43.0	lantern	physics	permanence	0.9375	stimuli/VOE/physics/permanence_invisible_discontinuous_two-become-one-occluders/lantern/object.png
372.363	6.0	fixation	n/a	fixation	fixation	VOE_Exp2	SAXE_NES2_s028	n/a	407205	15.0	n/a	n/a	n/a	n/a	43.0	lantern	n/a	n/a	0.9375	n/a
378.371	7.5	psychology_fam	n/a	psychology_goal_fam	psychology_goal_trial-21-ramp_fam	VOE_Exp2	SAXE_NES2_s028	n/a	414713	16.0	n/a	n/a	fam	yes	34.0	trial-21-ramp	psychology	goal	0.9375	stimuli/VOE/psychology/goal_1.1_obstacles/trial_21_ramp/fam_exp.mp4
386.142	7.5	psychology_exp	n/a	psychology_goal_exp	psychology_goal_trial-21-ramp_exp	VOE_Exp2	SAXE_NES2_s028	n/a	422484	16.0	n/a	n/a	exp	yes	34.0	trial-21-ramp	psychology	goal	0.9375	stimuli/VOE/psychology/goal_1.1_obstacles/trial_21_ramp/test.mp4
393.905	2.0	check	1.497599999964237	check	check	VOE_Exp2	SAXE_NES2_s028	1.0	424747	16.0	True	True	exp	yes	34.0	trial-21-ramp	psychology	goal	0.9375	stimuli/VOE/psychology/goal_1.1_obstacles/trial_21_ramp/agent.png
395.911	7.0	fixation	n/a	fixation	fixation	VOE_Exp2	SAXE_NES2_s028	n/a	431753	16.0	n/a	n/a	n/a	n/a	34.0	trial-21-ramp	n/a	n/a	0.9375	n/a
402.923	10.0	fixation	n/a	fixation	fixation	VOE_Exp2	SAXE_NES2_s028	n/a	441765	n/a	n/a	n/a	n/a	n/a	n/a	n/a	n/a	n/a	0.9375	n/a
