onset	duration	trial_type	response_time	trial_type_specific	trial_type_morespecific	experiment_name	participant	correct	time_elapsed	trial_n	correct_answer	subject_correct	event	identical_tests	stim_ID	scenario_string	domain	task	prop_correct	stim_path
0.0030000000000001	10.0	fixation	n/a	fixation	fixation	VOE_Exp2	SAXE_NES2_s007	n/a	121461	n/a	n/a	n/a	n/a	n/a	n/a	n/a	n/a	n/a	0.5625	n/a
10.016000000000004	7.5	both_fam	n/a	both_agent-solidity_fam	both_agent-solidity_trial-11_fam	VOE_Exp2	SAXE_NES2_s007	n/a	128974	1.0	n/a	n/a	fam	no	62.0	trial-11	both	agent-solidity	0.5625	stimuli/VOE/physics-psychology/efficiency_2.5_agent-solidity/trial_11/fam.mp4
17.772999999999996	7.5	both_exp	n/a	both_agent-solidity_exp	both_agent-solidity_trial-11_exp	VOE_Exp2	SAXE_NES2_s007	n/a	136731	1.0	n/a	n/a	exp	no	62.0	trial-11	both	agent-solidity	0.5625	stimuli/VOE/physics-psychology/efficiency_2.5_agent-solidity/trial_11/exp.mp4
25.543000000000006	8.0	fixation	n/a	fixation	fixation	VOE_Exp2	SAXE_NES2_s007	n/a	145001	1.0	n/a	n/a	n/a	n/a	62.0	trial-11	n/a	n/a	0.5625	n/a
33.55500000000001	2.0	check	1.0083999999910591	check	check	VOE_Exp2	SAXE_NES2_s007	1.0	147013	1.0	False	True	exp	no	62.0	trial-11	both	infer-constraint	0.5625	stimuli/VOE/physics-psychology/efficiency_2.5_agent-solidity/trial_19/object.png
35.56200000000001	7.5	both_fam	n/a	both_infer-constraint_fam	both_infer-constraint_trial-5-over_fam	VOE_Exp2	SAXE_NES2_s007	n/a	154520	2.0	n/a	n/a	fam	no	44.0	trial-5-over	both	infer-constraint	0.5625	stimuli/VOE/physics-psychology/infer_constraint_3.1/trial_5_over/fam.mp4
43.327	7.5	both_unexp	n/a	both_infer-constraint_unexp	both_infer-constraint_trial-5-over_unexp	VOE_Exp2	SAXE_NES2_s007	n/a	162285	2.0	n/a	n/a	unexp	no	44.0	trial-5-over	both	infer-constraint	0.5625	stimuli/VOE/physics-psychology/infer_constraint_3.1/trial_5_over/unexp.mp4
51.089	6.0	fixation	n/a	fixation	fixation	VOE_Exp2	SAXE_NES2_s007	n/a	168547	2.0	n/a	n/a	n/a	n/a	44.0	trial-5-over	n/a	n/a	0.5625	n/a
57.09800000000001	2.0	check	1.2357999999970195	check	check	VOE_Exp2	SAXE_NES2_s007	0.0	170556	2.0	True	False	unexp	no	44.0	trial-5-over	both	agent-solidity	0.5625	stimuli/VOE/physics-psychology/infer_constraint_3.1/trial_5_over/agent.png
59.106	7.5	psychology_fam	n/a	psychology_efficiency_fam	psychology_efficiency_trial-15-over_fam	VOE_Exp2	SAXE_NES2_s007	n/a	178064	3.0	n/a	n/a	fam	no	51.0	trial-15-over	psychology	efficiency	0.5625	stimuli/VOE/psychology/efficiency_2.3_obstacleattest/trial_15_over/fam.mp4
66.87	7.5	psychology_exp	n/a	psychology_efficiency_exp	psychology_efficiency_trial-15-over_exp	VOE_Exp2	SAXE_NES2_s007	n/a	185828	3.0	n/a	n/a	exp	no	51.0	trial-15-over	psychology	efficiency	0.5625	stimuli/VOE/psychology/efficiency_2.3_obstacleattest/trial_15_over/exp.mp4
74.63499999999999	4.0	fixation	n/a	fixation	fixation	VOE_Exp2	SAXE_NES2_s007	n/a	190093	3.0	n/a	n/a	n/a	n/a	51.0	trial-15-over	n/a	n/a	0.5625	n/a
78.64000000000001	2.0	check	1.7337000000029803	check	check	VOE_Exp2	SAXE_NES2_s007	1.0	192098	3.0	True	True	exp	no	51.0	trial-15-over	psychology	efficiency	0.5625	stimuli/VOE/psychology/efficiency_2.3_obstacleattest/trial_15_over/object.png
80.649	7.5	both_fam	n/a	both_infer-constraint_fam	both_infer-constraint_trial-34-around_fam	VOE_Exp2	SAXE_NES2_s007	n/a	199607	4.0	n/a	n/a	fam	no	61.0	trial-34-around	both	infer-constraint	0.5625	stimuli/VOE/physics-psychology/infer_constraint_3.1/trial_34_around/fam.mp4
88.416	7.5	both_unexp	n/a	both_infer-constraint_unexp	both_infer-constraint_trial-34-around_unexp	VOE_Exp2	SAXE_NES2_s007	n/a	207374	4.0	n/a	n/a	unexp	no	61.0	trial-34-around	both	infer-constraint	0.5625	stimuli/VOE/physics-psychology/infer_constraint_3.1/trial_34_around/unexp.mp4
96.182	9.0	fixation	n/a	fixation	fixation	VOE_Exp2	SAXE_NES2_s007	n/a	216640	4.0	n/a	n/a	n/a	n/a	61.0	trial-34-around	n/a	n/a	0.5625	n/a
105.186	2.0	check	1.84059999999404	check	check	VOE_Exp2	SAXE_NES2_s007	1.0	218644	4.0	True	True	unexp	no	61.0	trial-34-around	both	agent-solidity	0.5625	stimuli/VOE/physics-psychology/infer_constraint_3.1/trial_34_around/agent.png
107.196	7.5	physics_fam	n/a	physics_permanence_fam	physics_permanence_lantern_fam	VOE_Exp2	SAXE_NES2_s007	n/a	226154	5.0	n/a	n/a	fam	no	43.0	lantern	physics	permanence	0.5625	stimuli/VOE/physics/permanence_invisible_discontinuous_two-become-one-occluders/lantern/fam.mp4
114.957	7.5	physics_exp	n/a	physics_permanence_exp	physics_permanence_lantern_exp	VOE_Exp2	SAXE_NES2_s007	n/a	233915	5.0	n/a	n/a	exp	no	43.0	lantern	physics	permanence	0.5625	stimuli/VOE/physics/permanence_invisible_discontinuous_two-become-one-occluders/lantern/exp.mp4
122.721	7.0	fixation	n/a	fixation	fixation	VOE_Exp2	SAXE_NES2_s007	n/a	241179	5.0	n/a	n/a	n/a	n/a	43.0	lantern	n/a	n/a	0.5625	n/a
129.73	2.0	check	n/a	check	check	VOE_Exp2	SAXE_NES2_s007	n/a	243188	5.0	True	n/a	exp	no	43.0	lantern	physics	permanence	0.5625	stimuli/VOE/physics/permanence_invisible_discontinuous_two-become-one-occluders/lantern/occluder.png
131.739	7.5	both_fam	n/a	both_agent-solidity_fam	both_agent-solidity_trial-19_fam	VOE_Exp2	SAXE_NES2_s007	n/a	250697	6.0	n/a	n/a	fam	no	63.0	trial-19	both	agent-solidity	0.5625	stimuli/VOE/physics-psychology/efficiency_2.5_agent-solidity/trial_19/fam.mp4
139.499	7.5	both_unexp	n/a	both_agent-solidity_unexp	both_agent-solidity_trial-19_unexp	VOE_Exp2	SAXE_NES2_s007	n/a	258457	6.0	n/a	n/a	unexp	no	63.0	trial-19	both	agent-solidity	0.5625	stimuli/VOE/physics-psychology/efficiency_2.5_agent-solidity/trial_19/unexp.mp4
147.26200000000003	5.0	fixation	n/a	fixation	fixation	VOE_Exp2	SAXE_NES2_s007	n/a	263720	6.0	n/a	n/a	n/a	n/a	63.0	trial-19	n/a	n/a	0.5625	n/a
152.268	2.0	check	1.2710999999940396	check	check	VOE_Exp2	SAXE_NES2_s007	1.0	265726	6.0	True	True	unexp	no	63.0	trial-19	both	infer-constraint	0.5625	stimuli/VOE/physics-psychology/efficiency_2.5_agent-solidity/trial_19/object.png
154.275	7.5	psychology_fam	n/a	psychology_goal_fam	psychology_goal_trial-19-ramp_fam	VOE_Exp2	SAXE_NES2_s007	n/a	273233	7.0	n/a	n/a	fam	yes	49.0	trial-19-ramp	psychology	goal	0.5625	stimuli/VOE/psychology/goal_1.1_obstacles/trial_19_ramp/fam_unexp.mp4
162.042	7.5	psychology_unexp	n/a	psychology_goal_unexp	psychology_goal_trial-19-ramp_unexp	VOE_Exp2	SAXE_NES2_s007	n/a	281000	7.0	n/a	n/a	unexp	yes	49.0	trial-19-ramp	psychology	goal	0.5625	stimuli/VOE/psychology/goal_1.1_obstacles/trial_19_ramp/test.mp4
169.807	10.0	fixation	n/a	fixation	fixation	VOE_Exp2	SAXE_NES2_s007	n/a	291265	7.0	n/a	n/a	n/a	n/a	49.0	trial-19-ramp	n/a	n/a	0.5625	n/a
179.814	2.0	check	1.08329999999702	check	check	VOE_Exp2	SAXE_NES2_s007	1.0	293272	7.0	True	True	unexp	yes	49.0	trial-19-ramp	psychology	goal	0.5625	stimuli/VOE/psychology/goal_1.1_obstacles/trial_19_ramp/agent.png
181.82	7.5	physics_fam	n/a	physics_solidity_fam	physics_solidity_rectangular_fam	VOE_Exp2	SAXE_NES2_s007	n/a	300778	8.0	n/a	n/a	fam	no	55.0	rectangular	physics	solidity	0.5625	stimuli/VOE/physics/solidity_block_barrier/rectangular/fam.mp4
189.583	7.5	physics_unexp	n/a	physics_solidity_unexp	physics_solidity_rectangular_unexp	VOE_Exp2	SAXE_NES2_s007	n/a	308541	8.0	n/a	n/a	unexp	no	55.0	rectangular	physics	solidity	0.5625	stimuli/VOE/physics/solidity_block_barrier/rectangular/unexp.mp4
197.346	7.0	fixation	n/a	fixation	fixation	VOE_Exp2	SAXE_NES2_s007	n/a	315804	8.0	n/a	n/a	n/a	n/a	55.0	rectangular	n/a	n/a	0.5625	n/a
204.355	2.0	check	1.4617000000029805	check	check	VOE_Exp2	SAXE_NES2_s007	1.0	317813	8.0	True	True	unexp	no	55.0	rectangular	physics	solidity	0.5625	stimuli/VOE/physics/solidity_block_barrier/rectangular/object.png
206.361	7.5	psychology_fam	n/a	psychology_goal_fam	psychology_goal_trial-1_fam	VOE_Exp2	SAXE_NES2_s007	n/a	325319	9.0	n/a	n/a	fam	no	48.0	trial-1	psychology	goal	0.5625	stimuli/VOE/psychology/goal_1.1_noobstacles/trial_1/fam.mp4
214.122	7.5	psychology_exp	n/a	psychology_goal_exp	psychology_goal_trial-1_exp	VOE_Exp2	SAXE_NES2_s007	n/a	333080	9.0	n/a	n/a	exp	no	48.0	trial-1	psychology	goal	0.5625	stimuli/VOE/psychology/goal_1.1_noobstacles/trial_1/exp.mp4
221.883	7.0	fixation	n/a	fixation	fixation	VOE_Exp2	SAXE_NES2_s007	n/a	340341	9.0	n/a	n/a	n/a	n/a	48.0	trial-1	n/a	n/a	0.5625	n/a
228.88700000000003	2.0	check	n/a	check	check	VOE_Exp2	SAXE_NES2_s007	n/a	342345	9.0	True	n/a	exp	no	48.0	trial-1	psychology	goal	0.5625	stimuli/VOE/psychology/goal_1.1_noobstacles/trial_1/surface.png
230.895	7.5	physics_fam	n/a	physics_solidity_fam	physics_solidity_cone_fam	VOE_Exp2	SAXE_NES2_s007	n/a	349853	10.0	n/a	n/a	fam	no	54.0	cone	physics	solidity	0.5625	stimuli/VOE/physics/solidity_long_overturn_fan/cone/fam.mp4
238.657	7.5	physics_exp	n/a	physics_solidity_exp	physics_solidity_cone_exp	VOE_Exp2	SAXE_NES2_s007	n/a	357615	10.0	n/a	n/a	exp	no	54.0	cone	physics	solidity	0.5625	stimuli/VOE/physics/solidity_long_overturn_fan/cone/exp.mp4
246.417	8.0	fixation	n/a	fixation	fixation	VOE_Exp2	SAXE_NES2_s007	n/a	365875	10.0	n/a	n/a	n/a	n/a	54.0	cone	n/a	n/a	0.5625	n/a
254.427	2.0	check	1.2265	check	check	VOE_Exp2	SAXE_NES2_s007	0.0	367885	10.0	False	False	exp	no	54.0	cone	physics	solidity	0.5625	stimuli/VOE/physics/solidity_block_barrier/rectangular/object.png
256.43600000000004	7.5	physics_fam	n/a	physics_permanence_fam	physics_permanence_sphere_fam	VOE_Exp2	SAXE_NES2_s007	n/a	375394	11.0	n/a	n/a	fam	no	42.0	sphere	physics	permanence	0.5625	stimuli/VOE/physics/permanence_invisible_discontinuous_two-become-one-occluders/sphere/fam.mp4
264.199	7.5	physics_exp	n/a	physics_permanence_exp	physics_permanence_sphere_exp	VOE_Exp2	SAXE_NES2_s007	n/a	383157	11.0	n/a	n/a	exp	no	42.0	sphere	physics	permanence	0.5625	stimuli/VOE/physics/permanence_invisible_discontinuous_two-become-one-occluders/sphere/exp.mp4
271.962	8.0	fixation	n/a	fixation	fixation	VOE_Exp2	SAXE_NES2_s007	n/a	391420	11.0	n/a	n/a	n/a	n/a	42.0	sphere	n/a	n/a	0.5625	n/a
279.96900000000005	2.0	check	1.6189000000059606	check	check	VOE_Exp2	SAXE_NES2_s007	1.0	393427	11.0	False	True	exp	no	42.0	sphere	physics	permanence	0.5625	stimuli/VOE/physics/solidity_block_barrier/sphere/barrier.png
281.97799999999995	7.5	psychology_fam	n/a	psychology_goal_fam	psychology_goal_trial-21-ramp_fam	VOE_Exp2	SAXE_NES2_s007	n/a	400936	12.0	n/a	n/a	fam	yes	34.0	trial-21-ramp	psychology	goal	0.5625	stimuli/VOE/psychology/goal_1.1_obstacles/trial_21_ramp/fam_exp.mp4
289.74800000000005	7.5	psychology_exp	n/a	psychology_goal_exp	psychology_goal_trial-21-ramp_exp	VOE_Exp2	SAXE_NES2_s007	n/a	408706	12.0	n/a	n/a	exp	yes	34.0	trial-21-ramp	psychology	goal	0.5625	stimuli/VOE/psychology/goal_1.1_obstacles/trial_21_ramp/test.mp4
297.50800000000004	5.0	fixation	n/a	fixation	fixation	VOE_Exp2	SAXE_NES2_s007	n/a	413966	12.0	n/a	n/a	n/a	n/a	34.0	trial-21-ramp	n/a	n/a	0.5625	n/a
302.514	2.0	check	1.0078999999910594	check	check	VOE_Exp2	SAXE_NES2_s007	1.0	415972	12.0	True	True	exp	yes	34.0	trial-21-ramp	psychology	goal	0.5625	stimuli/VOE/psychology/goal_1.1_obstacles/trial_21_ramp/agent.png
304.51800000000003	7.5	psychology_fam	n/a	psychology_efficiency_fam	psychology_efficiency_trial-9-over_fam	VOE_Exp2	SAXE_NES2_s007	n/a	423476	13.0	n/a	n/a	fam	no	53.0	trial-9-over	psychology	efficiency	0.5625	stimuli/VOE/psychology/efficiency_2.3_obstacleattest/trial_9_over/fam.mp4
312.28200000000004	7.5	psychology_exp	n/a	psychology_efficiency_exp	psychology_efficiency_trial-9-over_exp	VOE_Exp2	SAXE_NES2_s007	n/a	431240	13.0	n/a	n/a	exp	no	53.0	trial-9-over	psychology	efficiency	0.5625	stimuli/VOE/psychology/efficiency_2.3_obstacleattest/trial_9_over/exp.mp4
320.04100000000005	7.0	fixation	n/a	fixation	fixation	VOE_Exp2	SAXE_NES2_s007	n/a	438499	13.0	n/a	n/a	n/a	n/a	53.0	trial-9-over	n/a	n/a	0.5625	n/a
327.048	2.0	check	n/a	check	check	VOE_Exp2	SAXE_NES2_s007	n/a	440506	13.0	False	n/a	exp	no	53.0	trial-9-over	psychology	efficiency	0.5625	stimuli/VOE/psychology/efficiency_2.3_obstacleattest/trial_2_over/surface.png
329.05499999999995	7.5	psychology_fam	n/a	psychology_efficiency_fam	psychology_efficiency_trial-2-over_fam	VOE_Exp2	SAXE_NES2_s007	n/a	448013	14.0	n/a	n/a	fam	no	52.0	trial-2-over	psychology	efficiency	0.5625	stimuli/VOE/psychology/efficiency_2.3_obstacleattest/trial_2_over/fam.mp4
336.827	7.5	psychology_unexp	n/a	psychology_efficiency_unexp	psychology_efficiency_trial-2-over_unexp	VOE_Exp2	SAXE_NES2_s007	n/a	455785	14.0	n/a	n/a	unexp	no	52.0	trial-2-over	psychology	efficiency	0.5625	stimuli/VOE/psychology/efficiency_2.3_obstacleattest/trial_2_over/unexp.mp4
344.587	9.0	fixation	n/a	fixation	fixation	VOE_Exp2	SAXE_NES2_s007	n/a	465045	14.0	n/a	n/a	n/a	n/a	52.0	trial-2-over	n/a	n/a	0.5625	n/a
353.59400000000005	2.0	check	1.0043000000119209	check	check	VOE_Exp2	SAXE_NES2_s007	0.0	467052	14.0	False	False	unexp	no	52.0	trial-2-over	psychology	efficiency	0.5625	stimuli/VOE/psychology/efficiency_2.3_obstacleattest/trial_9_over/agent.png
355.60299999999995	7.5	physics_fam	n/a	physics_solidity_fam	physics_solidity_sphere_fam	VOE_Exp2	SAXE_NES2_s007	n/a	474561	15.0	n/a	n/a	fam	no	40.0	sphere	physics	solidity	0.5625	stimuli/VOE/physics/solidity_block_barrier/sphere/fam.mp4
363.36800000000005	7.5	physics_unexp	n/a	physics_solidity_unexp	physics_solidity_sphere_unexp	VOE_Exp2	SAXE_NES2_s007	n/a	482326	15.0	n/a	n/a	unexp	no	40.0	sphere	physics	solidity	0.5625	stimuli/VOE/physics/solidity_block_barrier/sphere/unexp.mp4
371.124	6.0	fixation	n/a	fixation	fixation	VOE_Exp2	SAXE_NES2_s007	n/a	488582	15.0	n/a	n/a	n/a	n/a	40.0	sphere	n/a	n/a	0.5625	n/a
377.133	2.0	check	1.58929999999702	check	check	VOE_Exp2	SAXE_NES2_s007	1.0	490591	15.0	False	True	unexp	no	40.0	sphere	physics	solidity	0.5625	stimuli/VOE/physics/solidity_long_overturn_fan/cone/occluder.png
379.138	7.5	physics_fam	n/a	physics_permanence_fam	physics_permanence_boot_fam	VOE_Exp2	SAXE_NES2_s007	n/a	498096	16.0	n/a	n/a	fam	yes_last4.5s	41.0	boot	physics	permanence	0.5625	stimuli/VOE/physics/permanence_create_one-becomes-two-fan/boot/fam.mp4
386.905	7.5	physics_unexp	n/a	physics_permanence_unexp	physics_permanence_boot_unexp	VOE_Exp2	SAXE_NES2_s007	n/a	505863	16.0	n/a	n/a	unexp	yes_last4.5s	41.0	boot	physics	permanence	0.5625	stimuli/VOE/physics/permanence_create_one-becomes-two-fan/boot/unexp.mp4
394.66600000000005	6.0	fixation	n/a	fixation	fixation	VOE_Exp2	SAXE_NES2_s007	n/a	512124	16.0	n/a	n/a	n/a	n/a	41.0	boot	n/a	n/a	0.5625	n/a
400.672	2.0	check	n/a	check	check	VOE_Exp2	SAXE_NES2_s007	n/a	514130	16.0	True	n/a	unexp	yes_last4.5s	41.0	boot	physics	permanence	0.5625	stimuli/VOE/physics/permanence_create_one-becomes-two-fan/boot/object1.png
402.676	10.0	fixation	n/a	fixation	fixation	VOE_Exp2	SAXE_NES2_s007	n/a	524134	n/a	n/a	n/a	n/a	n/a	n/a	n/a	n/a	n/a	0.5625	n/a
