onset	duration	trial_type	response_time	trial_type_specific	trial_type_morespecific	experiment_name	participant	correct	time_elapsed	trial_n	correct_answer	subject_correct	event	identical_tests	stim_ID	scenario_string	domain	task	prop_correct	stim_path
0.0020000000000024	10.0	fixation	n/a	fixation	fixation	VOE_Exp2	SAXE_NES2_s032	n/a	44923	n/a	n/a	n/a	n/a	n/a	n/a	n/a	n/a	n/a	0.9375	n/a
10.015999999999998	7.5	physics_fam	n/a	physics_solidity_fam	physics_solidity_sphere_fam	VOE_Exp2	SAXE_NES2_s032	n/a	52437	1.0	n/a	n/a	fam	no	56.0	sphere	physics	solidity	0.9375	stimuli/VOE/physics/solidity_block_barrier/sphere/fam.mp4
17.781	7.5	physics_exp	n/a	physics_solidity_exp	physics_solidity_sphere_exp	VOE_Exp2	SAXE_NES2_s032	n/a	60202	1.0	n/a	n/a	exp	no	56.0	sphere	physics	solidity	0.9375	stimuli/VOE/physics/solidity_block_barrier/sphere/exp.mp4
25.54	2.0	check	1.0105999999642372	check	check	VOE_Exp2	SAXE_NES2_s032	1.0	62461	1.0	False	True	exp	no	56.0	sphere	physics	solidity	0.9375	stimuli/VOE/physics/solidity_long_overturn_fan/cone/object.png
27.547000000000004	7.0	fixation	n/a	fixation	fixation	VOE_Exp2	SAXE_NES2_s032	n/a	69468	1.0	n/a	n/a	n/a	n/a	56.0	sphere	n/a	n/a	0.9375	n/a
34.555	7.5	psychology_fam	n/a	psychology_goal_fam	psychology_goal_trial-21-ramp_fam	VOE_Exp2	SAXE_NES2_s032	n/a	76976	2.0	n/a	n/a	fam	yes	34.0	trial-21-ramp	psychology	goal	0.9375	stimuli/VOE/psychology/goal_1.1_obstacles/trial_21_ramp/fam_exp.mp4
42.316	7.5	psychology_exp	n/a	psychology_goal_exp	psychology_goal_trial-21-ramp_exp	VOE_Exp2	SAXE_NES2_s032	n/a	84737	2.0	n/a	n/a	exp	yes	34.0	trial-21-ramp	psychology	goal	0.9375	stimuli/VOE/psychology/goal_1.1_obstacles/trial_21_ramp/test.mp4
50.081	2.0	check	1.513100000023842	check	check	VOE_Exp2	SAXE_NES2_s032	1.0	87002	2.0	False	True	exp	yes	34.0	trial-21-ramp	psychology	goal	0.9375	stimuli/VOE/psychology/efficiency_2.3_obstacleattest/trial_15_over/surface.png
52.085	6.0	fixation	n/a	fixation	fixation	VOE_Exp2	SAXE_NES2_s032	n/a	93006	2.0	n/a	n/a	n/a	n/a	34.0	trial-21-ramp	n/a	n/a	0.9375	n/a
58.092000000000006	7.5	physics_fam	n/a	physics_solidity_fam	physics_solidity_cone_fam	VOE_Exp2	SAXE_NES2_s032	n/a	100513	3.0	n/a	n/a	fam	no	38.0	cone	physics	solidity	0.9375	stimuli/VOE/physics/solidity_long_overturn_fan/cone/fam.mp4
65.856	7.5	physics_unexp	n/a	physics_solidity_unexp	physics_solidity_cone_unexp	VOE_Exp2	SAXE_NES2_s032	n/a	108277	3.0	n/a	n/a	unexp	no	38.0	cone	physics	solidity	0.9375	stimuli/VOE/physics/solidity_long_overturn_fan/cone/unexp.mp4
73.618	2.0	check	0.8763999999761581	check	check	VOE_Exp2	SAXE_NES2_s032	1.0	110539	3.0	False	True	unexp	no	38.0	cone	physics	solidity	0.9375	stimuli/VOE/physics/permanence_create_one-becomes-two-fan/boot/object2.png
75.625	8.0	fixation	n/a	fixation	fixation	VOE_Exp2	SAXE_NES2_s032	n/a	118546	3.0	n/a	n/a	n/a	n/a	38.0	cone	n/a	n/a	0.9375	n/a
83.636	7.5	psychology_fam	n/a	psychology_efficiency_fam	psychology_efficiency_trial-9-over_fam	VOE_Exp2	SAXE_NES2_s032	n/a	126057	4.0	n/a	n/a	fam	no	37.0	trial-9-over	psychology	efficiency	0.9375	stimuli/VOE/psychology/efficiency_2.3_obstacleattest/trial_9_over/fam.mp4
91.397	7.5	psychology_unexp	n/a	psychology_efficiency_unexp	psychology_efficiency_trial-9-over_unexp	VOE_Exp2	SAXE_NES2_s032	n/a	133818	4.0	n/a	n/a	unexp	no	37.0	trial-9-over	psychology	efficiency	0.9375	stimuli/VOE/psychology/efficiency_2.3_obstacleattest/trial_9_over/unexp.mp4
99.156	2.0	check	1.6360999999642372	check	check	VOE_Exp2	SAXE_NES2_s032	1.0	136077	4.0	True	True	unexp	no	37.0	trial-9-over	psychology	efficiency	0.9375	stimuli/VOE/psychology/efficiency_2.3_obstacleattest/trial_9_over/agent.png
101.163	8.0	fixation	n/a	fixation	fixation	VOE_Exp2	SAXE_NES2_s032	n/a	144084	4.0	n/a	n/a	n/a	n/a	37.0	trial-9-over	n/a	n/a	0.9375	n/a
109.172	7.5	both_fam	n/a	both_agent-solidity_fam	both_agent-solidity_trial-19_fam	VOE_Exp2	SAXE_NES2_s032	n/a	151593	5.0	n/a	n/a	fam	no	47.0	trial-19	both	agent-solidity	0.9375	stimuli/VOE/physics-psychology/efficiency_2.5_agent-solidity/trial_19/fam.mp4
116.93300000000002	7.5	both_exp	n/a	both_agent-solidity_exp	both_agent-solidity_trial-19_exp	VOE_Exp2	SAXE_NES2_s032	n/a	159354	5.0	n/a	n/a	exp	no	47.0	trial-19	both	agent-solidity	0.9375	stimuli/VOE/physics-psychology/efficiency_2.5_agent-solidity/trial_19/exp.mp4
124.69400000000002	2.0	check	0.782800000011921	check	check	VOE_Exp2	SAXE_NES2_s032	1.0	161615	5.0	True	True	exp	no	47.0	trial-19	both	infer-constraint	0.9375	stimuli/VOE/physics-psychology/efficiency_2.5_agent-solidity/trial_19/object.png
126.70100000000002	4.0	fixation	n/a	fixation	fixation	VOE_Exp2	SAXE_NES2_s032	n/a	165622	5.0	n/a	n/a	n/a	n/a	47.0	trial-19	n/a	n/a	0.9375	n/a
130.71200000000002	7.5	physics_fam	n/a	physics_permanence_fam	physics_permanence_boot_fam	VOE_Exp2	SAXE_NES2_s032	n/a	173133	6.0	n/a	n/a	fam	yes_last4.5s	57.0	boot	physics	permanence	0.9375	stimuli/VOE/physics/permanence_create_one-becomes-two-fan/boot/fam.mp4
138.47400000000002	7.5	physics_exp	n/a	physics_permanence_exp	physics_permanence_boot_exp	VOE_Exp2	SAXE_NES2_s032	n/a	180895	6.0	n/a	n/a	exp	yes_last4.5s	57.0	boot	physics	permanence	0.9375	stimuli/VOE/physics/permanence_create_one-becomes-two-fan/boot/exp.mp4
146.237	2.0	check	0.887	check	check	VOE_Exp2	SAXE_NES2_s032	1.0	183158	6.0	False	True	exp	yes_last4.5s	57.0	boot	physics	permanence	0.9375	stimuli/VOE/physics/permanence_invisible_discontinuous_two-become-one-occluders/lantern/object.png
148.241	5.0	fixation	n/a	fixation	fixation	VOE_Exp2	SAXE_NES2_s032	n/a	188162	6.0	n/a	n/a	n/a	n/a	57.0	boot	n/a	n/a	0.9375	n/a
153.251	7.5	both_fam	n/a	both_infer-constraint_fam	both_infer-constraint_trial-34-around_fam	VOE_Exp2	SAXE_NES2_s032	n/a	195672	7.0	n/a	n/a	fam	no	45.0	trial-34-around	both	infer-constraint	0.9375	stimuli/VOE/physics-psychology/infer_constraint_3.1/trial_34_around/fam.mp4
161.01000000000002	7.5	both_exp	n/a	both_infer-constraint_exp	both_infer-constraint_trial-34-around_exp	VOE_Exp2	SAXE_NES2_s032	n/a	203431	7.0	n/a	n/a	exp	no	45.0	trial-34-around	both	infer-constraint	0.9375	stimuli/VOE/physics-psychology/infer_constraint_3.1/trial_34_around/exp.mp4
168.769	2.0	check	1.2515	check	check	VOE_Exp2	SAXE_NES2_s032	1.0	205690	7.0	True	True	exp	no	45.0	trial-34-around	both	agent-solidity	0.9375	stimuli/VOE/physics-psychology/infer_constraint_3.1/trial_34_around/agent.png
170.776	9.0	fixation	n/a	fixation	fixation	VOE_Exp2	SAXE_NES2_s032	n/a	214697	7.0	n/a	n/a	n/a	n/a	45.0	trial-34-around	n/a	n/a	0.9375	n/a
179.78300000000002	7.5	physics_fam	n/a	physics_solidity_fam	physics_solidity_rectangular_fam	VOE_Exp2	SAXE_NES2_s032	n/a	222204	8.0	n/a	n/a	fam	no	55.0	rectangular	physics	solidity	0.9375	stimuli/VOE/physics/solidity_block_barrier/rectangular/fam.mp4
187.544	7.5	physics_unexp	n/a	physics_solidity_unexp	physics_solidity_rectangular_unexp	VOE_Exp2	SAXE_NES2_s032	n/a	229965	8.0	n/a	n/a	unexp	no	55.0	rectangular	physics	solidity	0.9375	stimuli/VOE/physics/solidity_block_barrier/rectangular/unexp.mp4
195.303	2.0	check	1.696199999988079	check	check	VOE_Exp2	SAXE_NES2_s032	1.0	232224	8.0	True	True	unexp	no	55.0	rectangular	physics	solidity	0.9375	stimuli/VOE/physics/solidity_block_barrier/rectangular/object.png
197.31	6.0	fixation	n/a	fixation	fixation	VOE_Exp2	SAXE_NES2_s032	n/a	238231	8.0	n/a	n/a	n/a	n/a	55.0	rectangular	n/a	n/a	0.9375	n/a
203.317	7.5	both_fam	n/a	both_infer-constraint_fam	both_infer-constraint_trial-5-over_fam	VOE_Exp2	SAXE_NES2_s032	n/a	245738	9.0	n/a	n/a	fam	no	44.0	trial-5-over	both	infer-constraint	0.9375	stimuli/VOE/physics-psychology/infer_constraint_3.1/trial_5_over/fam.mp4
211.085	7.5	both_unexp	n/a	both_infer-constraint_unexp	both_infer-constraint_trial-5-over_unexp	VOE_Exp2	SAXE_NES2_s032	n/a	253506	9.0	n/a	n/a	unexp	no	44.0	trial-5-over	both	infer-constraint	0.9375	stimuli/VOE/physics-psychology/infer_constraint_3.1/trial_5_over/unexp.mp4
218.849	2.0	check	1.4735	check	check	VOE_Exp2	SAXE_NES2_s032	1.0	255770	9.0	True	True	unexp	no	44.0	trial-5-over	both	agent-solidity	0.9375	stimuli/VOE/physics-psychology/infer_constraint_3.1/trial_5_over/object.png
220.855	7.0	fixation	n/a	fixation	fixation	VOE_Exp2	SAXE_NES2_s032	n/a	262776	9.0	n/a	n/a	n/a	n/a	44.0	trial-5-over	n/a	n/a	0.9375	n/a
227.86400000000003	7.5	psychology_fam	n/a	psychology_efficiency_fam	psychology_efficiency_trial-15-over_fam	VOE_Exp2	SAXE_NES2_s032	n/a	270285	10.0	n/a	n/a	fam	no	35.0	trial-15-over	psychology	efficiency	0.9375	stimuli/VOE/psychology/efficiency_2.3_obstacleattest/trial_15_over/fam.mp4
235.63100000000003	7.5	psychology_unexp	n/a	psychology_efficiency_unexp	psychology_efficiency_trial-15-over_unexp	VOE_Exp2	SAXE_NES2_s032	n/a	278052	10.0	n/a	n/a	unexp	no	35.0	trial-15-over	psychology	efficiency	0.9375	stimuli/VOE/psychology/efficiency_2.3_obstacleattest/trial_15_over/unexp.mp4
243.392	2.0	check	1.368600000023842	check	check	VOE_Exp2	SAXE_NES2_s032	1.0	280313	10.0	True	True	unexp	no	35.0	trial-15-over	psychology	efficiency	0.9375	stimuli/VOE/psychology/efficiency_2.3_obstacleattest/trial_15_over/object.png
245.399	5.0	fixation	n/a	fixation	fixation	VOE_Exp2	SAXE_NES2_s032	n/a	285320	10.0	n/a	n/a	n/a	n/a	35.0	trial-15-over	n/a	n/a	0.9375	n/a
250.40500000000003	7.5	both_fam	n/a	both_agent-solidity_fam	both_agent-solidity_trial-11_fam	VOE_Exp2	SAXE_NES2_s032	n/a	292826	11.0	n/a	n/a	fam	no	62.0	trial-11	both	agent-solidity	0.9375	stimuli/VOE/physics-psychology/efficiency_2.5_agent-solidity/trial_11/fam.mp4
258.161	7.5	both_exp	n/a	both_agent-solidity_exp	both_agent-solidity_trial-11_exp	VOE_Exp2	SAXE_NES2_s032	n/a	300582	11.0	n/a	n/a	exp	no	62.0	trial-11	both	agent-solidity	0.9375	stimuli/VOE/physics-psychology/efficiency_2.5_agent-solidity/trial_11/exp.mp4
265.926	2.0	check	0.8443999999761581	check	check	VOE_Exp2	SAXE_NES2_s032	1.0	302847	11.0	False	True	exp	no	62.0	trial-11	both	infer-constraint	0.9375	stimuli/VOE/physics-psychology/infer_constraint_3.1/trial_34_around/agent.png
267.934	8.0	fixation	n/a	fixation	fixation	VOE_Exp2	SAXE_NES2_s032	n/a	310855	11.0	n/a	n/a	n/a	n/a	62.0	trial-11	n/a	n/a	0.9375	n/a
275.943	7.5	physics_fam	n/a	physics_permanence_fam	physics_permanence_lantern_fam	VOE_Exp2	SAXE_NES2_s032	n/a	318364	12.0	n/a	n/a	fam	no	59.0	lantern	physics	permanence	0.9375	stimuli/VOE/physics/permanence_invisible_discontinuous_two-become-one-occluders/lantern/fam.mp4
283.708	7.5	physics_unexp	n/a	physics_permanence_unexp	physics_permanence_lantern_unexp	VOE_Exp2	SAXE_NES2_s032	n/a	326129	12.0	n/a	n/a	unexp	no	59.0	lantern	physics	permanence	0.9375	stimuli/VOE/physics/permanence_invisible_discontinuous_two-become-one-occluders/lantern/unexp.mp4
291.464	2.0	check	1.1715	check	check	VOE_Exp2	SAXE_NES2_s032	1.0	328385	12.0	True	True	unexp	no	59.0	lantern	physics	permanence	0.9375	stimuli/VOE/physics/permanence_invisible_discontinuous_two-become-one-occluders/lantern/occluder.png
293.469	7.0	fixation	n/a	fixation	fixation	VOE_Exp2	SAXE_NES2_s032	n/a	335390	12.0	n/a	n/a	n/a	n/a	59.0	lantern	n/a	n/a	0.9375	n/a
300.47700000000003	7.5	psychology_fam	n/a	psychology_efficiency_fam	psychology_efficiency_trial-2-over_fam	VOE_Exp2	SAXE_NES2_s032	n/a	342898	13.0	n/a	n/a	fam	no	36.0	trial-2-over	psychology	efficiency	0.9375	stimuli/VOE/psychology/efficiency_2.3_obstacleattest/trial_2_over/fam.mp4
308.238	7.5	psychology_exp	n/a	psychology_efficiency_exp	psychology_efficiency_trial-2-over_exp	VOE_Exp2	SAXE_NES2_s032	n/a	350659	13.0	n/a	n/a	exp	no	36.0	trial-2-over	psychology	efficiency	0.9375	stimuli/VOE/psychology/efficiency_2.3_obstacleattest/trial_2_over/exp.mp4
316.0	2.0	check	0.9969000000357628	check	check	VOE_Exp2	SAXE_NES2_s032	0.0	352921	13.0	False	False	exp	no	36.0	trial-2-over	psychology	efficiency	0.9375	stimuli/VOE/psychology/efficiency_2.3_obstacleattest/trial_15_over/surface.png
318.003	10.0	fixation	n/a	fixation	fixation	VOE_Exp2	SAXE_NES2_s032	n/a	362924	13.0	n/a	n/a	n/a	n/a	36.0	trial-2-over	n/a	n/a	0.9375	n/a
328.012	7.5	psychology_fam	n/a	psychology_goal_fam	psychology_goal_trial-1_fam	VOE_Exp2	SAXE_NES2_s032	n/a	370433	14.0	n/a	n/a	fam	no	48.0	trial-1	psychology	goal	0.9375	stimuli/VOE/psychology/goal_1.1_noobstacles/trial_1/fam.mp4
335.77	7.5	psychology_exp	n/a	psychology_goal_exp	psychology_goal_trial-1_exp	VOE_Exp2	SAXE_NES2_s032	n/a	378191	14.0	n/a	n/a	exp	no	48.0	trial-1	psychology	goal	0.9375	stimuli/VOE/psychology/goal_1.1_noobstacles/trial_1/exp.mp4
343.534	2.0	check	1.603600000023842	check	check	VOE_Exp2	SAXE_NES2_s032	1.0	380455	14.0	False	True	exp	no	48.0	trial-1	psychology	goal	0.9375	stimuli/VOE/psychology/goal_1.1_obstacles/trial_19_ramp/agent.png
345.541	9.0	fixation	n/a	fixation	fixation	VOE_Exp2	SAXE_NES2_s032	n/a	389462	14.0	n/a	n/a	n/a	n/a	48.0	trial-1	n/a	n/a	0.9375	n/a
354.547	7.5	physics_fam	n/a	physics_permanence_fam	physics_permanence_sphere_fam	VOE_Exp2	SAXE_NES2_s032	n/a	396968	15.0	n/a	n/a	fam	no	42.0	sphere	physics	permanence	0.9375	stimuli/VOE/physics/permanence_invisible_discontinuous_two-become-one-occluders/sphere/fam.mp4
362.309	7.5	physics_exp	n/a	physics_permanence_exp	physics_permanence_sphere_exp	VOE_Exp2	SAXE_NES2_s032	n/a	404730	15.0	n/a	n/a	exp	no	42.0	sphere	physics	permanence	0.9375	stimuli/VOE/physics/permanence_invisible_discontinuous_two-become-one-occluders/sphere/exp.mp4
370.07	2.0	check	1.1897999999523163	check	check	VOE_Exp2	SAXE_NES2_s032	1.0	406991	15.0	True	True	exp	no	42.0	sphere	physics	permanence	0.9375	stimuli/VOE/physics/permanence_invisible_discontinuous_two-become-one-occluders/sphere/object.png
372.076	6.0	fixation	n/a	fixation	fixation	VOE_Exp2	SAXE_NES2_s032	n/a	412997	15.0	n/a	n/a	n/a	n/a	42.0	sphere	n/a	n/a	0.9375	n/a
378.082	7.5	psychology_fam	n/a	psychology_goal_fam	psychology_goal_trial-19-ramp_fam	VOE_Exp2	SAXE_NES2_s032	n/a	420503	16.0	n/a	n/a	fam	yes	33.0	trial-19-ramp	psychology	goal	0.9375	stimuli/VOE/psychology/goal_1.1_obstacles/trial_19_ramp/fam_exp.mp4
385.853	7.5	psychology_exp	n/a	psychology_goal_exp	psychology_goal_trial-19-ramp_exp	VOE_Exp2	SAXE_NES2_s032	n/a	428274	16.0	n/a	n/a	exp	yes	33.0	trial-19-ramp	psychology	goal	0.9375	stimuli/VOE/psychology/goal_1.1_obstacles/trial_19_ramp/test.mp4
393.613	2.0	check	0.925800000011921	check	check	VOE_Exp2	SAXE_NES2_s032	1.0	430534	16.0	True	True	exp	yes	33.0	trial-19-ramp	psychology	goal	0.9375	stimuli/VOE/psychology/goal_1.1_obstacles/trial_19_ramp/object.png
395.62	7.0	fixation	n/a	fixation	fixation	VOE_Exp2	SAXE_NES2_s032	n/a	437541	16.0	n/a	n/a	n/a	n/a	33.0	trial-19-ramp	n/a	n/a	0.9375	n/a
402.626	10.0	fixation	n/a	fixation	fixation	VOE_Exp2	SAXE_NES2_s032	n/a	447547	n/a	n/a	n/a	n/a	n/a	n/a	n/a	n/a	n/a	0.9375	n/a
