onset	duration	trial_type	response_time	trial_type_specific	trial_type_morespecific	experiment_name	participant	correct	time_elapsed	trial_n	correct_answer	subject_correct	event	identical_tests	stim_ID	scenario_string	domain	task	prop_correct	stim_path
0.0020000000000024	10.0	fixation	n/a	fixation	fixation	VOE_Exp2	SAXE_NES2_s002	n/a	43412	n/a	n/a	n/a	n/a	n/a	n/a	n/a	n/a	n/a	0.9375	n/a
10.015	7.5	psychology_fam	n/a	psychology_goal_fam	psychology_goal_trial-21-ramp_fam	VOE_Exp2	SAXE_NES2_s002	n/a	50925	1.0	n/a	n/a	fam	yes	34.0	trial-21-ramp	psychology	goal	0.9375	stimuli/VOE/psychology/goal_1.1_obstacles/trial_21_ramp/fam_exp.mp4
17.787000000000006	7.5	psychology_exp	n/a	psychology_goal_exp	psychology_goal_trial-21-ramp_exp	VOE_Exp2	SAXE_NES2_s002	n/a	58697	1.0	n/a	n/a	exp	yes	34.0	trial-21-ramp	psychology	goal	0.9375	stimuli/VOE/psychology/goal_1.1_obstacles/trial_21_ramp/test.mp4
25.548	7.0	fixation	n/a	fixation	fixation	VOE_Exp2	SAXE_NES2_s002	n/a	65958	1.0	n/a	n/a	n/a	n/a	34.0	trial-21-ramp	n/a	n/a	0.9375	n/a
32.557	2.0	check	1.3519000000003725	check	check	VOE_Exp2	SAXE_NES2_s002	1.0	67967	1.0	True	True	exp	yes	34.0	trial-21-ramp	psychology	goal	0.9375	stimuli/VOE/psychology/goal_1.1_obstacles/trial_21_ramp/object.png
34.569	7.5	psychology_fam	n/a	psychology_goal_fam	psychology_goal_trial-1_fam	VOE_Exp2	SAXE_NES2_s002	n/a	75479	2.0	n/a	n/a	fam	no	32.0	trial-1	psychology	goal	0.9375	stimuli/VOE/psychology/goal_1.1_noobstacles/trial_1/fam.mp4
42.33	7.5	psychology_unexp	n/a	psychology_goal_unexp	psychology_goal_trial-1_unexp	VOE_Exp2	SAXE_NES2_s002	n/a	83240	2.0	n/a	n/a	unexp	no	32.0	trial-1	psychology	goal	0.9375	stimuli/VOE/psychology/goal_1.1_noobstacles/trial_1/unexp.mp4
50.09400000000001	7.0	fixation	n/a	fixation	fixation	VOE_Exp2	SAXE_NES2_s002	n/a	90504	2.0	n/a	n/a	n/a	n/a	32.0	trial-1	n/a	n/a	0.9375	n/a
57.099	2.0	check	0.9145	check	check	VOE_Exp2	SAXE_NES2_s002	1.0	92509	2.0	False	True	unexp	no	32.0	trial-1	psychology	goal	0.9375	stimuli/VOE/psychology/efficiency_2.3_obstacleattest/trial_15_over/object.png
59.107	7.5	physics_fam	n/a	physics_permanence_fam	physics_permanence_boot_fam	VOE_Exp2	SAXE_NES2_s002	n/a	100017	3.0	n/a	n/a	fam	yes_last4.5s	41.0	boot	physics	permanence	0.9375	stimuli/VOE/physics/permanence_create_one-becomes-two-fan/boot/fam.mp4
66.86800000000001	7.5	physics_unexp	n/a	physics_permanence_unexp	physics_permanence_boot_unexp	VOE_Exp2	SAXE_NES2_s002	n/a	107778	3.0	n/a	n/a	unexp	yes_last4.5s	41.0	boot	physics	permanence	0.9375	stimuli/VOE/physics/permanence_create_one-becomes-two-fan/boot/unexp.mp4
74.631	8.0	fixation	n/a	fixation	fixation	VOE_Exp2	SAXE_NES2_s002	n/a	116041	3.0	n/a	n/a	n/a	n/a	41.0	boot	n/a	n/a	0.9375	n/a
82.638	2.0	check	1.4291000000005587	check	check	VOE_Exp2	SAXE_NES2_s002	1.0	118048	3.0	True	True	unexp	yes_last4.5s	41.0	boot	physics	permanence	0.9375	stimuli/VOE/physics/permanence_create_one-becomes-two-fan/boot/object1.png
84.64800000000001	7.5	physics_fam	n/a	physics_permanence_fam	physics_permanence_lantern_fam	VOE_Exp2	SAXE_NES2_s002	n/a	125558	4.0	n/a	n/a	fam	no	59.0	lantern	physics	permanence	0.9375	stimuli/VOE/physics/permanence_invisible_discontinuous_two-become-one-occluders/lantern/fam.mp4
92.412	7.5	physics_unexp	n/a	physics_permanence_unexp	physics_permanence_lantern_unexp	VOE_Exp2	SAXE_NES2_s002	n/a	133322	4.0	n/a	n/a	unexp	no	59.0	lantern	physics	permanence	0.9375	stimuli/VOE/physics/permanence_invisible_discontinuous_two-become-one-occluders/lantern/unexp.mp4
100.172	8.0	fixation	n/a	fixation	fixation	VOE_Exp2	SAXE_NES2_s002	n/a	141582	4.0	n/a	n/a	n/a	n/a	59.0	lantern	n/a	n/a	0.9375	n/a
108.177	2.0	check	0.8697000000001862	check	check	VOE_Exp2	SAXE_NES2_s002	1.0	143587	4.0	True	True	unexp	no	59.0	lantern	physics	permanence	0.9375	stimuli/VOE/physics/permanence_invisible_discontinuous_two-become-one-occluders/lantern/object.png
110.186	7.5	psychology_fam	n/a	psychology_efficiency_fam	psychology_efficiency_trial-15-over_fam	VOE_Exp2	SAXE_NES2_s002	n/a	151096	5.0	n/a	n/a	fam	no	51.0	trial-15-over	psychology	efficiency	0.9375	stimuli/VOE/psychology/efficiency_2.3_obstacleattest/trial_15_over/fam.mp4
117.946	7.5	psychology_exp	n/a	psychology_efficiency_exp	psychology_efficiency_trial-15-over_exp	VOE_Exp2	SAXE_NES2_s002	n/a	158856	5.0	n/a	n/a	exp	no	51.0	trial-15-over	psychology	efficiency	0.9375	stimuli/VOE/psychology/efficiency_2.3_obstacleattest/trial_15_over/exp.mp4
125.707	5.0	fixation	n/a	fixation	fixation	VOE_Exp2	SAXE_NES2_s002	n/a	164117	5.0	n/a	n/a	n/a	n/a	51.0	trial-15-over	n/a	n/a	0.9375	n/a
130.717	2.0	check	1.3251000000005588	check	check	VOE_Exp2	SAXE_NES2_s002	1.0	166127	5.0	False	True	exp	no	51.0	trial-15-over	psychology	efficiency	0.9375	stimuli/VOE/psychology/goal_1.1_noobstacles/trial_1/object.png
132.724	7.5	psychology_fam	n/a	psychology_efficiency_fam	psychology_efficiency_trial-9-over_fam	VOE_Exp2	SAXE_NES2_s002	n/a	173634	6.0	n/a	n/a	fam	no	37.0	trial-9-over	psychology	efficiency	0.9375	stimuli/VOE/psychology/efficiency_2.3_obstacleattest/trial_9_over/fam.mp4
140.485	7.5	psychology_unexp	n/a	psychology_efficiency_unexp	psychology_efficiency_trial-9-over_unexp	VOE_Exp2	SAXE_NES2_s002	n/a	181395	6.0	n/a	n/a	unexp	no	37.0	trial-9-over	psychology	efficiency	0.9375	stimuli/VOE/psychology/efficiency_2.3_obstacleattest/trial_9_over/unexp.mp4
148.252	7.0	fixation	n/a	fixation	fixation	VOE_Exp2	SAXE_NES2_s002	n/a	188662	6.0	n/a	n/a	n/a	n/a	37.0	trial-9-over	n/a	n/a	0.9375	n/a
155.259	2.0	check	1.2439000000003726	check	check	VOE_Exp2	SAXE_NES2_s002	1.0	190669	6.0	True	True	unexp	no	37.0	trial-9-over	psychology	efficiency	0.9375	stimuli/VOE/psychology/efficiency_2.3_obstacleattest/trial_9_over/agent.png
157.268	7.5	physics_fam	n/a	physics_solidity_fam	physics_solidity_sphere_fam	VOE_Exp2	SAXE_NES2_s002	n/a	198178	7.0	n/a	n/a	fam	no	56.0	sphere	physics	solidity	0.9375	stimuli/VOE/physics/solidity_block_barrier/sphere/fam.mp4
165.03300000000002	7.5	physics_exp	n/a	physics_solidity_exp	physics_solidity_sphere_exp	VOE_Exp2	SAXE_NES2_s002	n/a	205943	7.0	n/a	n/a	exp	no	56.0	sphere	physics	solidity	0.9375	stimuli/VOE/physics/solidity_block_barrier/sphere/exp.mp4
172.79500000000002	8.0	fixation	n/a	fixation	fixation	VOE_Exp2	SAXE_NES2_s002	n/a	214205	7.0	n/a	n/a	n/a	n/a	56.0	sphere	n/a	n/a	0.9375	n/a
180.803	2.0	check	0.8097000000001863	check	check	VOE_Exp2	SAXE_NES2_s002	1.0	216213	7.0	False	True	exp	no	56.0	sphere	physics	solidity	0.9375	stimuli/VOE/physics/solidity_long_overturn_fan/cone/object.png
182.812	7.5	both_fam	n/a	both_agent-solidity_fam	both_agent-solidity_trial-19_fam	VOE_Exp2	SAXE_NES2_s002	n/a	223722	8.0	n/a	n/a	fam	no	47.0	trial-19	both	agent-solidity	0.9375	stimuli/VOE/physics-psychology/efficiency_2.5_agent-solidity/trial_19/fam.mp4
190.581	7.5	both_exp	n/a	both_agent-solidity_exp	both_agent-solidity_trial-19_exp	VOE_Exp2	SAXE_NES2_s002	n/a	231491	8.0	n/a	n/a	exp	no	47.0	trial-19	both	agent-solidity	0.9375	stimuli/VOE/physics-psychology/efficiency_2.5_agent-solidity/trial_19/exp.mp4
198.346	6.0	fixation	n/a	fixation	fixation	VOE_Exp2	SAXE_NES2_s002	n/a	237756	8.0	n/a	n/a	n/a	n/a	47.0	trial-19	n/a	n/a	0.9375	n/a
204.355	2.0	check	1.3137999999998138	check	check	VOE_Exp2	SAXE_NES2_s002	0.0	239765	8.0	False	False	exp	no	47.0	trial-19	both	infer-constraint	0.9375	stimuli/VOE/physics-psychology/infer_constraint_3.1/trial_34_around/agent.png
206.365	7.5	physics_fam	n/a	physics_permanence_fam	physics_permanence_sphere_fam	VOE_Exp2	SAXE_NES2_s002	n/a	247275	9.0	n/a	n/a	fam	no	42.0	sphere	physics	permanence	0.9375	stimuli/VOE/physics/permanence_invisible_discontinuous_two-become-one-occluders/sphere/fam.mp4
214.125	7.5	physics_exp	n/a	physics_permanence_exp	physics_permanence_sphere_exp	VOE_Exp2	SAXE_NES2_s002	n/a	255035	9.0	n/a	n/a	exp	no	42.0	sphere	physics	permanence	0.9375	stimuli/VOE/physics/permanence_invisible_discontinuous_two-become-one-occluders/sphere/exp.mp4
221.887	4.0	fixation	n/a	fixation	fixation	VOE_Exp2	SAXE_NES2_s002	n/a	259297	9.0	n/a	n/a	n/a	n/a	42.0	sphere	n/a	n/a	0.9375	n/a
225.896	2.0	check	0.9114000000003726	check	check	VOE_Exp2	SAXE_NES2_s002	1.0	261306	9.0	False	True	exp	no	42.0	sphere	physics	permanence	0.9375	stimuli/VOE/physics/solidity_long_overturn_fan/cone/object.png
227.902	7.5	both_fam	n/a	both_infer-constraint_fam	both_infer-constraint_trial-5-over_fam	VOE_Exp2	SAXE_NES2_s002	n/a	268812	10.0	n/a	n/a	fam	no	60.0	trial-5-over	both	infer-constraint	0.9375	stimuli/VOE/physics-psychology/infer_constraint_3.1/trial_5_over/fam.mp4
235.667	7.5	both_exp	n/a	both_infer-constraint_exp	both_infer-constraint_trial-5-over_exp	VOE_Exp2	SAXE_NES2_s002	n/a	276577	10.0	n/a	n/a	exp	no	60.0	trial-5-over	both	infer-constraint	0.9375	stimuli/VOE/physics-psychology/infer_constraint_3.1/trial_5_over/exp.mp4
243.429	6.0	fixation	n/a	fixation	fixation	VOE_Exp2	SAXE_NES2_s002	n/a	282839	10.0	n/a	n/a	n/a	n/a	60.0	trial-5-over	n/a	n/a	0.9375	n/a
249.43500000000003	2.0	check	1.3052000000001862	check	check	VOE_Exp2	SAXE_NES2_s002	1.0	284845	10.0	True	True	exp	no	60.0	trial-5-over	both	agent-solidity	0.9375	stimuli/VOE/physics-psychology/infer_constraint_3.1/trial_5_over/agent.png
251.445	7.5	psychology_fam	n/a	psychology_efficiency_fam	psychology_efficiency_trial-2-over_fam	VOE_Exp2	SAXE_NES2_s002	n/a	292355	11.0	n/a	n/a	fam	no	36.0	trial-2-over	psychology	efficiency	0.9375	stimuli/VOE/psychology/efficiency_2.3_obstacleattest/trial_2_over/fam.mp4
259.208	7.5	psychology_exp	n/a	psychology_efficiency_exp	psychology_efficiency_trial-2-over_exp	VOE_Exp2	SAXE_NES2_s002	n/a	300118	11.0	n/a	n/a	exp	no	36.0	trial-2-over	psychology	efficiency	0.9375	stimuli/VOE/psychology/efficiency_2.3_obstacleattest/trial_2_over/exp.mp4
266.971	6.0	fixation	n/a	fixation	fixation	VOE_Exp2	SAXE_NES2_s002	n/a	306381	11.0	n/a	n/a	n/a	n/a	36.0	trial-2-over	n/a	n/a	0.9375	n/a
272.97900000000004	2.0	check	0.909	check	check	VOE_Exp2	SAXE_NES2_s002	1.0	308389	11.0	False	True	exp	no	36.0	trial-2-over	psychology	efficiency	0.9375	stimuli/VOE/psychology/goal_1.1_noobstacles/trial_1/object.png
274.987	7.5	both_fam	n/a	both_infer-constraint_fam	both_infer-constraint_trial-34-around_fam	VOE_Exp2	SAXE_NES2_s002	n/a	315897	12.0	n/a	n/a	fam	no	61.0	trial-34-around	both	infer-constraint	0.9375	stimuli/VOE/physics-psychology/infer_constraint_3.1/trial_34_around/fam.mp4
282.75	7.5	both_unexp	n/a	both_infer-constraint_unexp	both_infer-constraint_trial-34-around_unexp	VOE_Exp2	SAXE_NES2_s002	n/a	323660	12.0	n/a	n/a	unexp	no	61.0	trial-34-around	both	infer-constraint	0.9375	stimuli/VOE/physics-psychology/infer_constraint_3.1/trial_34_around/unexp.mp4
290.51300000000003	5.0	fixation	n/a	fixation	fixation	VOE_Exp2	SAXE_NES2_s002	n/a	328923	12.0	n/a	n/a	n/a	n/a	61.0	trial-34-around	n/a	n/a	0.9375	n/a
295.52200000000005	2.0	check	1.3037999999998138	check	check	VOE_Exp2	SAXE_NES2_s002	1.0	330932	12.0	True	True	unexp	no	61.0	trial-34-around	both	agent-solidity	0.9375	stimuli/VOE/physics-psychology/infer_constraint_3.1/trial_34_around/agent.png
297.529	7.5	psychology_fam	n/a	psychology_goal_fam	psychology_goal_trial-19-ramp_fam	VOE_Exp2	SAXE_NES2_s002	n/a	338439	13.0	n/a	n/a	fam	yes	49.0	trial-19-ramp	psychology	goal	0.9375	stimuli/VOE/psychology/goal_1.1_obstacles/trial_19_ramp/fam_unexp.mp4
305.289	7.5	psychology_unexp	n/a	psychology_goal_unexp	psychology_goal_trial-19-ramp_unexp	VOE_Exp2	SAXE_NES2_s002	n/a	346199	13.0	n/a	n/a	unexp	yes	49.0	trial-19-ramp	psychology	goal	0.9375	stimuli/VOE/psychology/goal_1.1_obstacles/trial_19_ramp/test.mp4
313.04999999999995	9.0	fixation	n/a	fixation	fixation	VOE_Exp2	SAXE_NES2_s002	n/a	355460	13.0	n/a	n/a	n/a	n/a	49.0	trial-19-ramp	n/a	n/a	0.9375	n/a
322.057	2.0	check	1.2037000000001865	check	check	VOE_Exp2	SAXE_NES2_s002	1.0	357467	13.0	True	True	unexp	yes	49.0	trial-19-ramp	psychology	goal	0.9375	stimuli/VOE/psychology/goal_1.1_obstacles/trial_19_ramp/object.png
324.064	7.5	both_fam	n/a	both_agent-solidity_fam	both_agent-solidity_trial-11_fam	VOE_Exp2	SAXE_NES2_s002	n/a	364974	14.0	n/a	n/a	fam	no	62.0	trial-11	both	agent-solidity	0.9375	stimuli/VOE/physics-psychology/efficiency_2.5_agent-solidity/trial_11/fam.mp4
331.831	7.5	both_exp	n/a	both_agent-solidity_exp	both_agent-solidity_trial-11_exp	VOE_Exp2	SAXE_NES2_s002	n/a	372741	14.0	n/a	n/a	exp	no	62.0	trial-11	both	agent-solidity	0.9375	stimuli/VOE/physics-psychology/efficiency_2.5_agent-solidity/trial_11/exp.mp4
339.593	10.0	fixation	n/a	fixation	fixation	VOE_Exp2	SAXE_NES2_s002	n/a	383003	14.0	n/a	n/a	n/a	n/a	62.0	trial-11	n/a	n/a	0.9375	n/a
349.6	2.0	check	0.9904000000003724	check	check	VOE_Exp2	SAXE_NES2_s002	1.0	385010	14.0	True	True	exp	no	62.0	trial-11	both	infer-constraint	0.9375	stimuli/VOE/physics-psychology/efficiency_2.5_agent-solidity/trial_11/surface.png
351.60900000000004	7.5	physics_fam	n/a	physics_solidity_fam	physics_solidity_cone_fam	VOE_Exp2	SAXE_NES2_s002	n/a	392519	15.0	n/a	n/a	fam	no	38.0	cone	physics	solidity	0.9375	stimuli/VOE/physics/solidity_long_overturn_fan/cone/fam.mp4
359.374	7.5	physics_unexp	n/a	physics_solidity_unexp	physics_solidity_cone_unexp	VOE_Exp2	SAXE_NES2_s002	n/a	400284	15.0	n/a	n/a	unexp	no	38.0	cone	physics	solidity	0.9375	stimuli/VOE/physics/solidity_long_overturn_fan/cone/unexp.mp4
367.13700000000006	7.0	fixation	n/a	fixation	fixation	VOE_Exp2	SAXE_NES2_s002	n/a	407547	15.0	n/a	n/a	n/a	n/a	38.0	cone	n/a	n/a	0.9375	n/a
374.1470000000001	2.0	check	0.8223999999994412	check	check	VOE_Exp2	SAXE_NES2_s002	1.0	409557	15.0	False	True	unexp	no	38.0	cone	physics	solidity	0.9375	stimuli/VOE/physics/permanence_invisible_discontinuous_two-become-one-occluders/lantern/object.png
376.163	7.5	physics_fam	n/a	physics_solidity_fam	physics_solidity_rectangular_fam	VOE_Exp2	SAXE_NES2_s002	n/a	417073	16.0	n/a	n/a	fam	no	39.0	rectangular	physics	solidity	0.9375	stimuli/VOE/physics/solidity_block_barrier/rectangular/fam.mp4
383.928	7.5	physics_exp	n/a	physics_solidity_exp	physics_solidity_rectangular_exp	VOE_Exp2	SAXE_NES2_s002	n/a	424838	16.0	n/a	n/a	exp	no	39.0	rectangular	physics	solidity	0.9375	stimuli/VOE/physics/solidity_block_barrier/rectangular/exp.mp4
391.691	9.0	fixation	n/a	fixation	fixation	VOE_Exp2	SAXE_NES2_s002	n/a	434101	16.0	n/a	n/a	n/a	n/a	39.0	rectangular	n/a	n/a	0.9375	n/a
400.698	2.0	check	0.8488999999994412	check	check	VOE_Exp2	SAXE_NES2_s002	1.0	436108	16.0	False	True	exp	no	39.0	rectangular	physics	solidity	0.9375	stimuli/VOE/physics/solidity_long_overturn_fan/cone/object.png
402.702	10.0	fixation	n/a	fixation	fixation	VOE_Exp2	SAXE_NES2_s002	n/a	446112	n/a	n/a	n/a	n/a	n/a	n/a	n/a	n/a	n/a	0.9375	n/a
