onset	duration	trial_type	response_time	trial_type_specific	trial_type_morespecific	experiment_name	participant	correct	time_elapsed	trial_n	correct_answer	subject_correct	event	identical_tests	stim_ID	scenario_string	domain	task	prop_correct	stim_path
0.0050000000000025	10.0	fixation	n/a	fixation	fixation	VOE_Exp2	SAXE_NES2_s027	n/a	46325	n/a	n/a	n/a	n/a	n/a	n/a	n/a	n/a	n/a	1	n/a
10.021	7.5	both_fam	n/a	both_agent-solidity_fam	both_agent-solidity_trial-19_fam	VOE_Exp2	SAXE_NES2_s027	n/a	53841	1.0	n/a	n/a	fam	no	63.0	trial-19	both	agent-solidity	1	stimuli/VOE/physics-psychology/efficiency_2.5_agent-solidity/trial_19/fam.mp4
17.787	7.5	both_unexp	n/a	both_agent-solidity_unexp	both_agent-solidity_trial-19_unexp	VOE_Exp2	SAXE_NES2_s027	n/a	61607	1.0	n/a	n/a	unexp	no	63.0	trial-19	both	agent-solidity	1	stimuli/VOE/physics-psychology/efficiency_2.5_agent-solidity/trial_19/unexp.mp4
25.55	2.0	check	0.7458000000119209	check	check	VOE_Exp2	SAXE_NES2_s027	1.0	63870	1.0	False	True	unexp	no	63.0	trial-19	both	infer-constraint	1	stimuli/VOE/physics-psychology/infer_constraint_3.1/trial_34_around/agent.png
27.558	5.0	fixation	n/a	fixation	fixation	VOE_Exp2	SAXE_NES2_s027	n/a	68878	1.0	n/a	n/a	n/a	n/a	63.0	trial-19	n/a	n/a	1	n/a
32.571000000000005	7.5	both_fam	n/a	both_infer-constraint_fam	both_infer-constraint_trial-34-around_fam	VOE_Exp2	SAXE_NES2_s027	n/a	76391	2.0	n/a	n/a	fam	no	45.0	trial-34-around	both	infer-constraint	1	stimuli/VOE/physics-psychology/infer_constraint_3.1/trial_34_around/fam.mp4
40.331	7.5	both_exp	n/a	both_infer-constraint_exp	both_infer-constraint_trial-34-around_exp	VOE_Exp2	SAXE_NES2_s027	n/a	84151	2.0	n/a	n/a	exp	no	45.0	trial-34-around	both	infer-constraint	1	stimuli/VOE/physics-psychology/infer_constraint_3.1/trial_34_around/exp.mp4
48.094	2.0	check	1.107600000023842	check	check	VOE_Exp2	SAXE_NES2_s027	1.0	86414	2.0	False	True	exp	no	45.0	trial-34-around	both	agent-solidity	1	stimuli/VOE/physics-psychology/efficiency_2.5_agent-solidity/trial_11/surface.png
50.106	5.0	fixation	n/a	fixation	fixation	VOE_Exp2	SAXE_NES2_s027	n/a	91426	2.0	n/a	n/a	n/a	n/a	45.0	trial-34-around	n/a	n/a	1	n/a
55.114	7.5	psychology_fam	n/a	psychology_efficiency_fam	psychology_efficiency_trial-9-over_fam	VOE_Exp2	SAXE_NES2_s027	n/a	98934	3.0	n/a	n/a	fam	no	53.0	trial-9-over	psychology	efficiency	1	stimuli/VOE/psychology/efficiency_2.3_obstacleattest/trial_9_over/fam.mp4
62.886	7.5	psychology_exp	n/a	psychology_efficiency_exp	psychology_efficiency_trial-9-over_exp	VOE_Exp2	SAXE_NES2_s027	n/a	106706	3.0	n/a	n/a	exp	no	53.0	trial-9-over	psychology	efficiency	1	stimuli/VOE/psychology/efficiency_2.3_obstacleattest/trial_9_over/exp.mp4
70.65799999999999	2.0	check	1.1642999999523165	check	check	VOE_Exp2	SAXE_NES2_s027	1.0	108978	3.0	True	True	exp	no	53.0	trial-9-over	psychology	efficiency	1	stimuli/VOE/psychology/efficiency_2.3_obstacleattest/trial_9_over/surface.png
72.666	9.0	fixation	n/a	fixation	fixation	VOE_Exp2	SAXE_NES2_s027	n/a	117986	3.0	n/a	n/a	n/a	n/a	53.0	trial-9-over	n/a	n/a	1	n/a
81.67500000000001	7.5	both_fam	n/a	both_infer-constraint_fam	both_infer-constraint_trial-5-over_fam	VOE_Exp2	SAXE_NES2_s027	n/a	125495	4.0	n/a	n/a	fam	no	44.0	trial-5-over	both	infer-constraint	1	stimuli/VOE/physics-psychology/infer_constraint_3.1/trial_5_over/fam.mp4
89.44399999999999	7.5	both_unexp	n/a	both_infer-constraint_unexp	both_infer-constraint_trial-5-over_unexp	VOE_Exp2	SAXE_NES2_s027	n/a	133264	4.0	n/a	n/a	unexp	no	44.0	trial-5-over	both	infer-constraint	1	stimuli/VOE/physics-psychology/infer_constraint_3.1/trial_5_over/unexp.mp4
97.20600000000002	2.0	check	0.7133999999761581	check	check	VOE_Exp2	SAXE_NES2_s027	1.0	135526	4.0	True	True	unexp	no	44.0	trial-5-over	both	agent-solidity	1	stimuli/VOE/physics-psychology/infer_constraint_3.1/trial_5_over/object.png
99.214	8.0	fixation	n/a	fixation	fixation	VOE_Exp2	SAXE_NES2_s027	n/a	143534	4.0	n/a	n/a	n/a	n/a	44.0	trial-5-over	n/a	n/a	1	n/a
107.225	7.5	physics_fam	n/a	physics_permanence_fam	physics_permanence_lantern_fam	VOE_Exp2	SAXE_NES2_s027	n/a	151045	5.0	n/a	n/a	fam	no	59.0	lantern	physics	permanence	1	stimuli/VOE/physics/permanence_invisible_discontinuous_two-become-one-occluders/lantern/fam.mp4
114.999	7.5	physics_unexp	n/a	physics_permanence_unexp	physics_permanence_lantern_unexp	VOE_Exp2	SAXE_NES2_s027	n/a	158819	5.0	n/a	n/a	unexp	no	59.0	lantern	physics	permanence	1	stimuli/VOE/physics/permanence_invisible_discontinuous_two-become-one-occluders/lantern/unexp.mp4
122.765	2.0	check	0.726300000011921	check	check	VOE_Exp2	SAXE_NES2_s027	1.0	161085	5.0	True	True	unexp	no	59.0	lantern	physics	permanence	1	stimuli/VOE/physics/permanence_invisible_discontinuous_two-become-one-occluders/lantern/object.png
124.775	6.0	fixation	n/a	fixation	fixation	VOE_Exp2	SAXE_NES2_s027	n/a	167095	5.0	n/a	n/a	n/a	n/a	59.0	lantern	n/a	n/a	1	n/a
130.78900000000002	7.5	both_fam	n/a	both_agent-solidity_fam	both_agent-solidity_trial-11_fam	VOE_Exp2	SAXE_NES2_s027	n/a	174609	6.0	n/a	n/a	fam	no	62.0	trial-11	both	agent-solidity	1	stimuli/VOE/physics-psychology/efficiency_2.5_agent-solidity/trial_11/fam.mp4
138.554	7.5	both_exp	n/a	both_agent-solidity_exp	both_agent-solidity_trial-11_exp	VOE_Exp2	SAXE_NES2_s027	n/a	182374	6.0	n/a	n/a	exp	no	62.0	trial-11	both	agent-solidity	1	stimuli/VOE/physics-psychology/efficiency_2.5_agent-solidity/trial_11/exp.mp4
146.318	2.0	check	1.1754000000357627	check	check	VOE_Exp2	SAXE_NES2_s027	1.0	184638	6.0	False	True	exp	no	62.0	trial-11	both	infer-constraint	1	stimuli/VOE/physics-psychology/infer_constraint_3.1/trial_5_over/agent.png
148.32500000000002	6.0	fixation	n/a	fixation	fixation	VOE_Exp2	SAXE_NES2_s027	n/a	190645	6.0	n/a	n/a	n/a	n/a	62.0	trial-11	n/a	n/a	1	n/a
154.342	7.5	psychology_fam	n/a	psychology_goal_fam	psychology_goal_trial-1_fam	VOE_Exp2	SAXE_NES2_s027	n/a	198162	7.0	n/a	n/a	fam	no	32.0	trial-1	psychology	goal	1	stimuli/VOE/psychology/goal_1.1_noobstacles/trial_1/fam.mp4
162.107	7.5	psychology_unexp	n/a	psychology_goal_unexp	psychology_goal_trial-1_unexp	VOE_Exp2	SAXE_NES2_s027	n/a	205927	7.0	n/a	n/a	unexp	no	32.0	trial-1	psychology	goal	1	stimuli/VOE/psychology/goal_1.1_noobstacles/trial_1/unexp.mp4
169.882	2.0	check	0.8686999999880791	check	check	VOE_Exp2	SAXE_NES2_s027	1.0	208202	7.0	True	True	unexp	no	32.0	trial-1	psychology	goal	1	stimuli/VOE/psychology/goal_1.1_noobstacles/trial_1/surface.png
171.89100000000002	6.0	fixation	n/a	fixation	fixation	VOE_Exp2	SAXE_NES2_s027	n/a	214211	7.0	n/a	n/a	n/a	n/a	32.0	trial-1	n/a	n/a	1	n/a
177.90200000000002	7.5	physics_fam	n/a	physics_solidity_fam	physics_solidity_sphere_fam	VOE_Exp2	SAXE_NES2_s027	n/a	221722	8.0	n/a	n/a	fam	no	40.0	sphere	physics	solidity	1	stimuli/VOE/physics/solidity_block_barrier/sphere/fam.mp4
185.667	7.5	physics_unexp	n/a	physics_solidity_unexp	physics_solidity_sphere_unexp	VOE_Exp2	SAXE_NES2_s027	n/a	229487	8.0	n/a	n/a	unexp	no	40.0	sphere	physics	solidity	1	stimuli/VOE/physics/solidity_block_barrier/sphere/unexp.mp4
193.433	2.0	check	0.989100000023842	check	check	VOE_Exp2	SAXE_NES2_s027	1.0	231753	8.0	False	True	unexp	no	40.0	sphere	physics	solidity	1	stimuli/VOE/physics/permanence_create_one-becomes-two-fan/boot/object2.png
195.442	7.0	fixation	n/a	fixation	fixation	VOE_Exp2	SAXE_NES2_s027	n/a	238762	8.0	n/a	n/a	n/a	n/a	40.0	sphere	n/a	n/a	1	n/a
202.455	7.5	psychology_fam	n/a	psychology_goal_fam	psychology_goal_trial-21-ramp_fam	VOE_Exp2	SAXE_NES2_s027	n/a	246275	9.0	n/a	n/a	fam	yes	50.0	trial-21-ramp	psychology	goal	1	stimuli/VOE/psychology/goal_1.1_obstacles/trial_21_ramp/fam_unexp.mp4
210.222	7.5	psychology_unexp	n/a	psychology_goal_unexp	psychology_goal_trial-21-ramp_unexp	VOE_Exp2	SAXE_NES2_s027	n/a	254042	9.0	n/a	n/a	unexp	yes	50.0	trial-21-ramp	psychology	goal	1	stimuli/VOE/psychology/goal_1.1_obstacles/trial_21_ramp/test.mp4
217.986	2.0	check	1.0216999999880791	check	check	VOE_Exp2	SAXE_NES2_s027	1.0	256306	9.0	True	True	unexp	yes	50.0	trial-21-ramp	psychology	goal	1	stimuli/VOE/psychology/goal_1.1_obstacles/trial_21_ramp/agent.png
219.992	7.0	fixation	n/a	fixation	fixation	VOE_Exp2	SAXE_NES2_s027	n/a	263312	9.0	n/a	n/a	n/a	n/a	50.0	trial-21-ramp	n/a	n/a	1	n/a
227.007	7.5	physics_fam	n/a	physics_solidity_fam	physics_solidity_cone_fam	VOE_Exp2	SAXE_NES2_s027	n/a	270827	10.0	n/a	n/a	fam	no	54.0	cone	physics	solidity	1	stimuli/VOE/physics/solidity_long_overturn_fan/cone/fam.mp4
234.783	7.5	physics_exp	n/a	physics_solidity_exp	physics_solidity_cone_exp	VOE_Exp2	SAXE_NES2_s027	n/a	278603	10.0	n/a	n/a	exp	no	54.0	cone	physics	solidity	1	stimuli/VOE/physics/solidity_long_overturn_fan/cone/exp.mp4
242.555	2.0	check	0.6884000000357627	check	check	VOE_Exp2	SAXE_NES2_s027	1.0	280875	10.0	False	True	exp	no	54.0	cone	physics	solidity	1	stimuli/VOE/physics/solidity_block_barrier/sphere/object.png
244.55900000000003	10.0	fixation	n/a	fixation	fixation	VOE_Exp2	SAXE_NES2_s027	n/a	290879	10.0	n/a	n/a	n/a	n/a	54.0	cone	n/a	n/a	1	n/a
254.574	7.5	physics_fam	n/a	physics_permanence_fam	physics_permanence_boot_fam	VOE_Exp2	SAXE_NES2_s027	n/a	298394	11.0	n/a	n/a	fam	yes_last4.5s	57.0	boot	physics	permanence	1	stimuli/VOE/physics/permanence_create_one-becomes-two-fan/boot/fam.mp4
262.349	7.5	physics_exp	n/a	physics_permanence_exp	physics_permanence_boot_exp	VOE_Exp2	SAXE_NES2_s027	n/a	306169	11.0	n/a	n/a	exp	yes_last4.5s	57.0	boot	physics	permanence	1	stimuli/VOE/physics/permanence_create_one-becomes-two-fan/boot/exp.mp4
270.111	2.0	check	1.255300000011921	check	check	VOE_Exp2	SAXE_NES2_s027	1.0	308431	11.0	False	True	exp	yes_last4.5s	57.0	boot	physics	permanence	1	stimuli/VOE/physics/solidity_block_barrier/rectangular/object.png
272.12	7.0	fixation	n/a	fixation	fixation	VOE_Exp2	SAXE_NES2_s027	n/a	315440	11.0	n/a	n/a	n/a	n/a	57.0	boot	n/a	n/a	1	n/a
279.135	7.5	psychology_fam	n/a	psychology_goal_fam	psychology_goal_trial-19-ramp_fam	VOE_Exp2	SAXE_NES2_s027	n/a	322955	12.0	n/a	n/a	fam	yes	49.0	trial-19-ramp	psychology	goal	1	stimuli/VOE/psychology/goal_1.1_obstacles/trial_19_ramp/fam_unexp.mp4
286.903	7.5	psychology_unexp	n/a	psychology_goal_unexp	psychology_goal_trial-19-ramp_unexp	VOE_Exp2	SAXE_NES2_s027	n/a	330723	12.0	n/a	n/a	unexp	yes	49.0	trial-19-ramp	psychology	goal	1	stimuli/VOE/psychology/goal_1.1_obstacles/trial_19_ramp/test.mp4
294.67400000000004	2.0	check	1.4170999999642373	check	check	VOE_Exp2	SAXE_NES2_s027	1.0	332994	12.0	True	True	unexp	yes	49.0	trial-19-ramp	psychology	goal	1	stimuli/VOE/psychology/goal_1.1_obstacles/trial_19_ramp/agent.png
296.683	7.0	fixation	n/a	fixation	fixation	VOE_Exp2	SAXE_NES2_s027	n/a	340003	12.0	n/a	n/a	n/a	n/a	49.0	trial-19-ramp	n/a	n/a	1	n/a
303.693	7.5	psychology_fam	n/a	psychology_efficiency_fam	psychology_efficiency_trial-15-over_fam	VOE_Exp2	SAXE_NES2_s027	n/a	347513	13.0	n/a	n/a	fam	no	35.0	trial-15-over	psychology	efficiency	1	stimuli/VOE/psychology/efficiency_2.3_obstacleattest/trial_15_over/fam.mp4
311.46	7.5	psychology_unexp	n/a	psychology_efficiency_unexp	psychology_efficiency_trial-15-over_unexp	VOE_Exp2	SAXE_NES2_s027	n/a	355280	13.0	n/a	n/a	unexp	no	35.0	trial-15-over	psychology	efficiency	1	stimuli/VOE/psychology/efficiency_2.3_obstacleattest/trial_15_over/unexp.mp4
319.225	2.0	check	1.088800000011921	check	check	VOE_Exp2	SAXE_NES2_s027	1.0	357545	13.0	False	True	unexp	no	35.0	trial-15-over	psychology	efficiency	1	stimuli/VOE/psychology/efficiency_2.3_obstacleattest/trial_2_over/object.png
321.235	8.0	fixation	n/a	fixation	fixation	VOE_Exp2	SAXE_NES2_s027	n/a	365555	13.0	n/a	n/a	n/a	n/a	35.0	trial-15-over	n/a	n/a	1	n/a
329.243	7.5	psychology_fam	n/a	psychology_efficiency_fam	psychology_efficiency_trial-2-over_fam	VOE_Exp2	SAXE_NES2_s027	n/a	373063	14.0	n/a	n/a	fam	no	36.0	trial-2-over	psychology	efficiency	1	stimuli/VOE/psychology/efficiency_2.3_obstacleattest/trial_2_over/fam.mp4
337.022	7.5	psychology_exp	n/a	psychology_efficiency_exp	psychology_efficiency_trial-2-over_exp	VOE_Exp2	SAXE_NES2_s027	n/a	380842	14.0	n/a	n/a	exp	no	36.0	trial-2-over	psychology	efficiency	1	stimuli/VOE/psychology/efficiency_2.3_obstacleattest/trial_2_over/exp.mp4
344.78700000000003	2.0	check	0.6237000000476837	check	check	VOE_Exp2	SAXE_NES2_s027	1.0	383107	14.0	False	True	exp	no	36.0	trial-2-over	psychology	efficiency	1	stimuli/VOE/psychology/goal_1.1_obstacles/trial_19_ramp/object.png
346.793	4.0	fixation	n/a	fixation	fixation	VOE_Exp2	SAXE_NES2_s027	n/a	387113	14.0	n/a	n/a	n/a	n/a	36.0	trial-2-over	n/a	n/a	1	n/a
350.807	7.5	physics_fam	n/a	physics_solidity_fam	physics_solidity_rectangular_fam	VOE_Exp2	SAXE_NES2_s027	n/a	394627	15.0	n/a	n/a	fam	no	39.0	rectangular	physics	solidity	1	stimuli/VOE/physics/solidity_block_barrier/rectangular/fam.mp4
358.583	7.5	physics_exp	n/a	physics_solidity_exp	physics_solidity_rectangular_exp	VOE_Exp2	SAXE_NES2_s027	n/a	402403	15.0	n/a	n/a	exp	no	39.0	rectangular	physics	solidity	1	stimuli/VOE/physics/solidity_block_barrier/rectangular/exp.mp4
366.351	2.0	check	0.5858000000119209	check	check	VOE_Exp2	SAXE_NES2_s027	1.0	404671	15.0	False	True	exp	no	39.0	rectangular	physics	solidity	1	stimuli/VOE/physics/solidity_long_overturn_fan/cone/object.png
368.359	9.0	fixation	n/a	fixation	fixation	VOE_Exp2	SAXE_NES2_s027	n/a	413679	15.0	n/a	n/a	n/a	n/a	39.0	rectangular	n/a	n/a	1	n/a
377.374	7.5	physics_fam	n/a	physics_permanence_fam	physics_permanence_sphere_fam	VOE_Exp2	SAXE_NES2_s027	n/a	421194	16.0	n/a	n/a	fam	no	58.0	sphere	physics	permanence	1	stimuli/VOE/physics/permanence_invisible_discontinuous_two-become-one-occluders/sphere/fam.mp4
385.143	7.5	physics_unexp	n/a	physics_permanence_unexp	physics_permanence_sphere_unexp	VOE_Exp2	SAXE_NES2_s027	n/a	428963	16.0	n/a	n/a	unexp	no	58.0	sphere	physics	permanence	1	stimuli/VOE/physics/permanence_invisible_discontinuous_two-become-one-occluders/sphere/unexp.mp4
392.905	2.0	check	0.6656000000238419	check	check	VOE_Exp2	SAXE_NES2_s027	1.0	431225	16.0	False	True	unexp	no	58.0	sphere	physics	permanence	1	stimuli/VOE/physics/solidity_block_barrier/sphere/object.png
394.915	8.0	fixation	n/a	fixation	fixation	VOE_Exp2	SAXE_NES2_s027	n/a	439235	16.0	n/a	n/a	n/a	n/a	58.0	sphere	n/a	n/a	1	n/a
402.923	10.0	fixation	n/a	fixation	fixation	VOE_Exp2	SAXE_NES2_s027	n/a	449243	n/a	n/a	n/a	n/a	n/a	n/a	n/a	n/a	n/a	1	n/a
