onset	duration	trial_type	response_time	experimentName	correct	stim_path
0.0	26	rest	n/a	DotsSocPhys	n/a	n/a
234.099	26	rest	n/a	DotsSocPhys	n/a	n/a
468.181	26	rest	n/a	DotsSocPhys	n/a	n/a
26.008	10	social_incorrect	11.283	DotsSocPhys	1.0	stimuli/DOTS/social.barriers.i.3.mp4
39.018	10	social_incorrect	11.279	DotsSocPhys	1.0	stimuli/DOTS/social.nobarriers.i.6.mp4
52.026	10	physics_correct	10.9	DotsSocPhys	1.0	stimuli/DOTS/physics.nobarriers.c.7.mp4
65.03	10	physics_incorrect	10.847	DotsSocPhys	1.0	stimuli/DOTS/physics.barriers.i.3.mp4
78.039	10	social_incorrect	11.064	DotsSocPhys	1.0	stimuli/DOTS/social.nobarriers.i.2.mp4
91.044	10	social_correct	10.936	DotsSocPhys	1.0	stimuli/DOTS/social.barriers.c.6.mp4
104.052	10	social_correct	10.839	DotsSocPhys	1.0	stimuli/DOTS/social.nobarriers.c.7.mp4
117.06	10	social_incorrect	10.862	DotsSocPhys	1.0	stimuli/DOTS/social.barriers.i.7.mp4
130.062	10	physics_correct	11.066	DotsSocPhys	0.0	stimuli/DOTS/physics.nobarriers.c.1.mp4
143.065	10	physics_incorrect	11.131	DotsSocPhys	1.0	stimuli/DOTS/physics.nobarriers.i.8.mp4
156.06900000000002	10	physics_correct	10.604	DotsSocPhys	1.0	stimuli/DOTS/physics.nobarriers.c.5.mp4
169.074	10	physics_incorrect	n/a	DotsSocPhys	n/a	stimuli/DOTS/physics.nobarriers.i.2.mp4
182.079	10	social_correct	10.82	DotsSocPhys	1.0	stimuli/DOTS/social.nobarriers.c.9.mp4
195.089	10	social_incorrect	11.135	DotsSocPhys	0.0	stimuli/DOTS/social.nobarriers.i.10.mp4
208.093	10	physics_incorrect	10.788	DotsSocPhys	1.0	stimuli/DOTS/physics.barriers.i.9.mp4
221.096	10	physics_correct	10.989	DotsSocPhys	1.0	stimuli/DOTS/physics.barriers.c.4.mp4
260.103	10	physics_correct	11.049	DotsSocPhys	0.0	stimuli/DOTS/physics.barriers.c.2.mp4
273.106	10	physics_incorrect	11.05	DotsSocPhys	0.0	stimuli/DOTS/physics.barriers.i.1.mp4
286.108	10	social_incorrect	10.856	DotsSocPhys	1.0	stimuli/DOTS/social.barriers.i.9.mp4
299.11400000000003	10	social_correct	11.364	DotsSocPhys	1.0	stimuli/DOTS/social.barriers.c.4.mp4
312.119	10	physics_correct	11.37	DotsSocPhys	0.0	stimuli/DOTS/physics.nobarriers.c.9.mp4
325.124	10	physics_correct	10.972	DotsSocPhys	1.0	stimuli/DOTS/physics.barriers.c.10.mp4
338.13100000000003	10	physics_incorrect	11.052	DotsSocPhys	1.0	stimuli/DOTS/physics.nobarriers.i.10.mp4
351.137	10	physics_incorrect	10.971	DotsSocPhys	1.0	stimuli/DOTS/physics.barriers.i.7.mp4
364.142	10	social_correct	11.107	DotsSocPhys	0.0	stimuli/DOTS/social.nobarriers.c.1.mp4
377.15	10	social_incorrect	11.498	DotsSocPhys	1.0	stimuli/DOTS/social.barriers.i.1.mp4
390.153	10	social_correct	11.041	DotsSocPhys	1.0	stimuli/DOTS/social.nobarriers.c.5.mp4
403.159	10	social_incorrect	11.044	DotsSocPhys	1.0	stimuli/DOTS/social.nobarriers.i.8.mp4
416.164	10	physics_incorrect	11.142	DotsSocPhys	1.0	stimuli/DOTS/physics.nobarriers.i.6.mp4
429.167	10	physics_correct	10.689	DotsSocPhys	1.0	stimuli/DOTS/physics.barriers.c.6.mp4
442.173	10	social_correct	10.989	DotsSocPhys	1.0	stimuli/DOTS/social.barriers.c.10.mp4
455.178	10	social_correct	10.915	DotsSocPhys	1.0	stimuli/DOTS/social.barriers.c.2.mp4
